#   1 NUMBER                 Running object number                                     
#   2 FLUX_ISO               Isophotal flux                                             [count]
#   3 MAG_ISO                Isophotal magnitude                                        [mag]
#   4 KRON_RADIUS            Kron apertures in units of A or B                         
#   5 PETRO_RADIUS           Petrosian apertures in units of A or B                    
#   6 ISOAREA_IMAGE          Isophotal area above Analysis threshold                    [pixel**2]
#   7 ISOAREAF_IMAGE         Isophotal area (filtered) above Detection threshold        [pixel**2]
#   8 X_IMAGE                Object position along x                                    [pixel]
#   9 Y_IMAGE                Object position along y                                    [pixel]
#  10 A_IMAGE                Profile RMS along major axis                               [pixel]
#  11 B_IMAGE                Profile RMS along minor axis                               [pixel]
#  12 THETA_IMAGE            Position angle (CCW/x)                                     [deg]
#  13 BACKGROUND             Background at centroid position                            [count]
         1 2.164249e+07 -18.3383  3.50  3.50     70161     78202   1550.0251    598.1568    30.982    27.764 -71.63     1160.944
         2     485941.4 -14.2165  3.50  3.96       750       820   1263.2347    109.0487     2.772     2.503  22.74     1146.538
         3     13542.08 -10.3292  3.50  4.62       122       135     97.4260     24.3119     1.971     1.888  76.65     1145.474
         4     246.9006  -5.9813  3.50  3.96        17        19     53.0465      8.5500     1.281     1.038  17.63      1145.53
         5     32.08508  -3.7658  7.17 10.56         3         3    683.3229      9.6589     0.576     0.334  45.79     1145.602
         6     224.9153  -5.8800  7.35 10.56        14        23   1070.9774      6.4271     1.438     1.102  58.64     1144.857
         7     1571.257  -7.9906  3.68  3.96        38        44   1676.2830      2.7776     1.617     1.311 -11.31     1146.177
         8     53.46204  -4.3201  8.42  9.90         4         4   1943.4663      6.4623     0.500     0.498  41.53     1144.481
         9     212.1415  -5.8166  4.41  7.92        14        19    774.7402     24.3400     1.208     1.094   3.04     1145.413
        10     33.39197  -3.8091  7.69 10.56         2         4    342.4949     21.5030     0.512     0.487 -45.02     1145.399
        11     1559.811  -7.9827  3.50  5.28        45        49    209.8033     40.8634     1.591     1.492 -81.12     1145.364
        12     219.4562  -5.8534  5.90 10.56        13        19   1355.6417     33.4297     1.096     1.087 -87.30     1147.352
        13     111.5267  -5.1184  6.72  3.50         7        11   2044.1245     42.1705     1.571     0.638 -62.81     1143.442
        14     165.2672  -5.5455  7.05  6.60         8        15   1507.4838     34.2954     1.052     0.638  -3.78      1146.97
        15     250.0712  -5.9952  7.09  5.28        14        21   1517.2561     39.6999     1.306     1.253  30.29     1147.056
        16     37.84924  -3.9451  6.04  9.24         3         3   1854.3398     34.6962     0.567     0.338  43.22     1145.971
        17      435.184  -6.5967  3.58  6.60        21        27   1447.9712     96.2946     1.467     1.061 -82.94     1147.886
        18     5223.998  -9.2950  3.88  5.94       199       222   1081.4310     81.4578     3.566     3.248   0.28     1145.177
        19     880.4348  -7.3617  5.32  7.26        36        42   1539.5690     54.0895     1.547     1.492  78.34     1147.258
        20     106.4534  -5.0679  4.71  9.24         9        10   1731.1777     44.9320     0.946     0.752   2.71     1146.387
        21     44.05176  -4.1099  6.66  9.90         3         4   1056.2473     45.9599     0.681     0.431  87.96     1145.034
        22     98.05542  -4.9787  5.19  4.62         7         8    849.2021     45.8940     1.083     0.523 -36.03     1145.253
        23     73.31421  -4.6630  5.70  4.62         4         6   1955.1410     47.1303     0.782     0.572  41.89     1144.705
        24     204.0662  -5.7744  3.98  7.26        12        15   1865.4011     57.1981     1.068     0.976 -62.19     1145.945
        25     2702.948  -8.5796  3.55  5.28        55        65   1240.1677     68.6660     1.664     1.641  36.53      1146.03
        26     284.5065  -6.1352  7.85  4.62        17        22   1520.1024     65.2520     1.651     0.933 -36.53     1147.447
        27     252.0261  -6.0036  7.37  4.62        12        16   1886.7056     63.7857     1.210     0.895 -84.34     1145.707
        28     45.36401  -4.1418  6.02  9.90         3         4   1705.4885     56.4803     0.503     0.496  44.01      1146.63
        29     33.77197  -3.8214  8.35  7.26         3         3    146.6614     60.0240     0.912     0.211 -61.48     1145.423
        30     156.3395  -5.4852  3.50  5.94         8        14    556.3903     63.2850     1.234     0.952  14.90     1145.538
        31     149.6875  -5.4380  7.67  9.24        11        13   1514.8552     66.1085     1.223     0.784  12.13     1147.466
        32     7143.818  -9.6348  3.50  4.62        92       105    272.7937     91.8039     1.885     1.797  72.11     1145.381
        33     9784.266  -9.9763  3.50  5.28       168       188    235.3894    104.9222     2.641     2.552 -83.77      1145.39
        34     33.63318  -3.8169  6.65  9.90         3         3   1586.6638     67.3384     0.581     0.331  45.09     1147.432
        35     2876.474  -8.6472  3.78  5.28        62        70   1933.6610     91.1571     1.727     1.664 -18.02     1145.371
        36     32.66357  -3.7852  7.02 10.56         2         3   1309.6570     76.2769     0.556     0.342  41.23     1147.031
        37     72.22266  -4.6467  8.42  4.62         5         5    765.4141     85.2533     0.740     0.456  71.31     1145.353
        38     947.4581  -7.4414  3.50  5.94        31        38   1348.3511     96.7683     1.472     1.379 -26.19     1147.584
        39     71.55676  -4.6366  7.39  7.92         5         6   2020.0615     88.1503     0.920     0.459 -36.35     1144.427
        40     562.9543  -6.8762  9.26 10.56        13        53   1684.0786    125.0628     1.882     0.990 -77.35     1147.534
        41     235.1929  -5.9286  8.65 10.56        10        22   1692.4922     92.3284     1.310     0.762 -32.66     1147.097
        42     95.17676  -4.9463  4.95  4.62         7         8     97.1448     90.8495     0.825     0.656  44.71     1145.483
        43     41.30396  -4.0400  7.65  9.90         3         4   2041.4530     88.5070     0.500     0.498 -75.07     1144.219
        44     741.7865  -7.1757  6.92 10.56        45        51   1237.8954    105.8557     2.191     1.659  20.08     1146.195
        45     295.4786  -6.1763  4.12  6.60        15        22     98.7413     98.8391     1.301     1.106  15.92     1145.482
        46     40.76184  -4.0256  3.50  9.24         3         3   1587.3168     91.7076     0.552     0.345  43.53     1147.834
        47     67811.11 -12.0783  3.50  3.96       272       308   1850.8287    143.9575     2.173     2.152  -6.28      1146.42
        48     80.20996  -4.7606  7.28  7.26         6         8   1185.1085     97.5113     0.936     0.679 -52.50     1145.721
        49     79.62158  -4.7526  7.77  7.92         4         9   1692.7605     99.8700     1.369     0.508  23.65     1147.175
        50     656.2097  -7.0426  4.97  5.94        29        32   1098.1871    111.8671     1.370     1.338  33.76     1145.373
        51     61.27759  -4.4683  8.90 10.56         3         6   1690.4919    107.3474     0.940     0.476  -1.39     1147.277
        52     44.75415  -4.1271  6.86  9.24         2         3   1630.7134    115.0261     0.869     0.218  61.91     1147.917
        53     37.44849  -3.9336  8.02  5.28         3         3   1726.3168    112.3214     0.565     0.340 -45.24     1147.002
        54      50.7771  -4.2642  3.50  7.92         4         4   1735.4664    115.4470     0.503     0.493  39.95     1146.966
        55     359.7931  -6.3901  8.26 10.56        14        32   1582.3505    173.3118     1.644     0.823  11.68     1149.139
        56     187.5233  -5.6826  6.40  6.60        12        16   1938.2446    133.8415     1.480     0.812 -81.50     1145.717
        57     43.84583  -4.1048  6.58  9.90         3         4    776.9819    128.5251     1.293     0.193 -58.39     1145.283
        58      33.4696  -3.8116  6.41  9.90         2         3   1798.6725    130.6553     0.580     0.332 -45.71     1146.696
        59     103724.1 -12.5397  3.90  5.28      2385      2731   1387.5702    412.8303    11.407    10.222 -27.82     1153.663
        60     4802.047  -9.2036  3.68  5.94       131       153   1925.5477    167.1705     2.845     2.274  84.65     1146.083
        61     45.35815  -4.1416  8.64 10.56         4         4    878.4724    134.4838     0.501     0.498  52.12     1145.201
        62     3359.194  -8.8156  3.50  5.28        97       108    556.0010    163.1277     2.350     2.225 -67.51     1145.354
        63     71.79651  -4.6403  6.99  4.62         4         5   1619.3848    143.4461     1.096     0.319 -69.49     1148.453
        64     105.8801  -5.0620  8.84  5.28         8        10   1679.7745    145.5302     1.242     0.612 -47.66     1147.817
        65     41.14587  -4.0358  6.00  9.90         3         3   1499.3065    140.6880     0.556     0.343  45.31     1148.652
        66     46.63232  -4.1717  5.40  3.50         3         4   1754.5112    141.5328     0.512     0.486 -43.97     1147.059
        67     51.88843  -4.2877  7.41  7.26         4         4   1574.9567    141.4583     0.774     0.321  32.79     1148.627
        68      266.584  -6.0646  7.06 10.56        15        21   1682.0723    153.8730     1.357     0.933  70.20     1147.886
        69     55.95288  -4.3696  8.25 10.56         4         4   1621.5081    145.9823     0.802     0.312 -58.06     1148.464
        70     47.39819  -4.1894  8.18  9.90         3         4   1788.4551    147.9867     0.796     0.312  58.00     1146.875
        71     106.7238  -5.0707  7.53 10.56         8        10   1594.8213    153.4541     0.994     0.715  88.62     1148.814
        72     198.8127  -5.7461  4.49  5.94        12        14   1190.7588    161.3266     1.227     0.799 -86.69     1146.095
        73     67.86853  -4.5792  8.28  5.94         5         5   1548.8127    152.3928     0.763     0.444 -19.23     1148.811
        74     110.9193  -5.1125  8.64  3.50         5         9   1675.2352    158.5023     0.961     0.606 -64.74     1148.026
        75      410.746  -6.5339  5.68  6.60        24        32   1045.2583    165.2891     1.719     1.260  33.83     1145.443
        76     70.46558  -4.6199  8.40  7.26         5         6   1597.8336    161.3537     0.739     0.642  74.30     1148.942
        77     86.58826  -4.8436  7.63  8.58         6         9   1526.6724    161.9026     0.959     0.680 -21.13     1148.975
        78     58.77771  -4.4230  8.10  7.92         4         5   1514.4128    162.1860     0.771     0.444  70.34     1148.978
        79     38.40796  -3.9611  6.30  6.60         3         3     44.3462    159.7197     0.558     0.341  41.39     1145.528
        80     35.33813  -3.8706  6.49  8.58         3         3   1646.6395    160.2991     0.573     0.334  42.23     1148.374
        81     337.8494  -6.3218  3.50  6.60        21        25    110.9967    171.7390     1.390     1.229  42.77     1145.485
        82     277.2142  -6.1070  7.58 10.56        15        25   1532.3735    171.0465     1.515     0.975 -75.20     1149.116
        83      2817.92  -8.6248  4.23  5.28        72        79   1485.3547    187.5318     1.927     1.721  74.85      1149.39
        84     194.1119  -5.7201  8.63 10.56        14        20   1670.4958    170.8519     1.752     0.940  18.53     1148.231
        85     343.1099  -6.3386  3.50  4.62        21        21    472.7953    170.9519     1.179     1.124  19.61     1145.374
        86      40.5083  -4.0189  4.88 10.56         3         3   1830.6703    164.6647     0.577     0.334 -45.24     1146.657
        87     649.0892  -7.0308  7.75  3.50        29        55   1571.4176    179.9354     2.223     1.579 -28.28     1149.253
        88      38.1001  -3.9523  8.01  7.26         3         3   1810.3418    167.3221     0.576     0.334 -44.14     1146.828
        89     155.7427  -5.4810  8.02  5.94        13        15   1843.8552    173.8241     1.442     0.832  13.86     1146.597
        90     67.11597  -4.5671  9.32 10.56         2         7   1564.5090    169.5191     0.513     0.486  44.70     1149.094
        91     40.62439  -4.0220  7.11  9.24         3         3   1549.0002    167.0000     0.835     0.289   0.00     1149.049
        92     262.9435  -6.0497  6.30  5.28        16        18   1480.5780    177.6004     1.308     0.969  55.01     1149.234
        93     190.6926  -5.7008  8.36 10.56         8        16   1670.8406    179.1987     1.204     0.763  88.47     1148.315
        94     99.03406  -4.9895  6.74 10.56         5         8   1549.2102    171.5486     0.730     0.455 -20.57     1149.129
        95     2856.618  -8.6396  3.50  5.28        55        62   1992.3429    189.4718     1.646     1.593  59.75      1145.99
        96     63.77234  -4.5116  7.80  8.58         5         6   1069.9745    175.4797     0.813     0.499   1.68     1145.564
        97     356.6539  -6.3806  5.17  5.94        23        29   1433.9133    190.1752     1.952     1.157  41.75     1148.942
        98     225.8833  -5.8847  6.10  7.26        14        19    416.4676    183.1383     1.477     0.928  -3.63     1145.373
        99     894.8594  -7.3794  6.41  6.60        42        53   1789.1411    197.2643     1.920     1.698 -78.37     1147.231
       100     95.67468  -4.9520  7.70  7.92         8         9   1746.5178    187.2621     1.545     0.602  53.82     1147.473
       101     138.4192  -5.3530  8.11 10.56         5        12   1549.2272    188.5173     1.217     0.594  84.07     1149.399
       102     81.77234  -4.7815  3.50  3.50         5         7    158.2236    185.4442     0.842     0.608  78.14      1145.46
       103     67.30688  -4.5701  8.88  6.60         5         5   1666.7670    181.6000     0.738     0.455  18.26     1148.405
       104        60648 -11.9570  3.50  3.96       249       267   1360.2930    227.1886     2.167     2.137  79.70     1148.527
       105     42.54675  -4.0722  7.75  7.92         2         4   1648.4757    182.4842     0.502     0.497 -47.12     1148.657
       106     850.1154  -7.3237  6.99 10.56        48        60   1523.4370    203.9415     2.004     1.944  89.02     1149.796
       107     124.7302  -5.2399  6.71  5.28         9         9    642.9081    189.2875     0.933     0.670  67.80     1145.261
       108      42.5636  -4.0726  7.42 10.56         2         3   1499.9750    184.6553     0.920     0.209  28.46     1149.341
       109     540742.1 -14.3325  3.50  3.50      1464      1619   1399.1251    361.3213     4.166     4.021 -15.11     1152.291
       110     390708.3 -13.9796  3.50  3.50       678       756    990.0470    270.4128     2.520     2.404 -46.03     1145.649
       111     50.70178  -4.2626  6.16  7.92         4         4   1210.4808    187.4964     0.500     0.500 -79.27     1146.339
       112     127.8263  -5.2666  8.64 10.56         8        10   1658.8699    208.4006     2.737     0.621 -87.34     1149.107
       113     1745.331  -8.1047  3.50  4.62        43        52    622.0773    203.3733     1.615     1.488 -26.24     1145.253
       114     31.48926  -3.7454  7.98 10.56         2         3   1664.6726    188.3321     0.574     0.335  45.22     1148.506
       115     58.10559  -4.4105  8.03  3.96         4         6   1723.1720    197.9968     0.953     0.468  52.83      1147.88
       116     259.1617  -6.0339  6.32  6.60        18        20   1240.8561    205.1164     1.298     1.088 -31.72     1146.789
       117     878.4172  -7.3593  3.50  7.26        44        48    233.2402    216.4342     1.812     1.587  64.30     1145.428
       118     61.45007  -4.4713  7.50 10.56         4         6   1661.4775    205.4947     1.395     0.430  61.92     1148.985
       119      52.0946  -4.2920  7.74  4.62         3         5   1662.1984    199.4187     0.778     0.438  20.71      1148.79
       120     318.3359  -6.2572  6.80  7.92        20        24   1441.2496    207.5623     1.495     1.158  -9.40     1149.407
       121       133.61  -5.3146  6.96 10.56         9        10   1551.0927    204.0776     2.070     0.400   7.92     1149.818
       122     51.58728  -4.2814  3.65  7.26         2         3   1587.3193    201.2974     0.555     0.344 -43.73     1149.741
       123     83.79041  -4.8080  8.37 10.56         5         8   1553.0721    208.1148     0.827     0.666 -41.97      1149.95
       124     1936.509  -8.2175  3.50  5.28        48        54    502.6519    221.6394     1.571     1.530 -13.31     1145.307
       125     471.3589  -6.6834  5.44  5.94        27        33   1795.3611    221.1031     1.660     1.366 -31.33     1147.612
       126      1793.35  -8.1342  3.61  5.28        76        88    202.8496    234.3154     2.506     1.980  46.31     1145.445
       127     252.1862  -6.0043  8.44 10.56        12        23   1656.7185    219.5800     1.386     0.929  44.85     1149.504
       128      46.8092  -4.1758  7.71  8.58         3         3   1495.3448    213.2841     0.560     0.341 -41.72     1150.026
       129     1458.393  -7.9097  4.99  9.24        66        83   1373.0836    237.1229     2.587     1.837  40.18     1148.894
       130     169.2163  -5.5711  8.55 10.56        11        16   1652.6708    229.1973     1.861     0.865  67.06     1149.849
       131     496.5387  -6.7399  5.20  5.94        27        30    202.2341    225.9561     1.522     1.273  36.63     1145.444
       132     195.5978  -5.7284  4.52  5.28        14        14    340.9407    224.1638     1.121     0.943  27.20     1145.384
       133     115.3243  -5.1548  7.23  4.62         6        11   1486.9825    225.2380     1.245     0.679  74.82     1150.342
       134     40.72559  -4.0247  7.70  5.28         2         3   1552.6917    217.3022     0.552     0.345  44.63     1150.242
       135     267.4943  -6.0683  7.49 10.56        13        23   1457.1848    229.2683     1.379     1.040  54.02      1150.15
       136     67.74683  -4.5772  7.89 10.56         6         6   1730.9940    219.4959     0.799     0.500  -0.71     1148.259
       137     45.47632  -4.1445  7.93  5.28         3         3   1542.6776    220.3316     0.572     0.336  45.43     1150.319
       138     90.02625  -4.8859  5.15  6.60         7         8     94.7640    223.8627     1.077     0.524  35.00     1145.493
       139      79.5155  -4.7511  4.73  7.26         5         6   1021.0844    226.5156     0.770     0.500   0.51     1145.598
       140     288.3256  -6.1497  8.40  9.90        12        25   1652.4498    235.3143     1.160     1.116  44.46     1150.053
       141     52.77832  -4.3061  5.22  7.26         2         4   1562.5046    229.4745     0.520     0.479  44.56      1150.66
       142     409.8225  -6.5315  5.25  7.92        21        25   1417.9159    242.7999     1.309     1.179 -58.06     1149.794
       143     147.4973  -5.4220  3.50  6.60        11        14   1021.7605    242.4986     1.318     0.817 -78.09     1145.673
       144     11438.57 -10.1459  3.50  4.62       114       129    306.3242    266.3264     1.973     1.847 -76.91     1145.416
       145     189.0192  -5.6913  8.79 10.56        13        16   1650.8353    242.8601     1.204     1.137  25.70     1150.321
       146     237.8651  -5.9408  8.24 10.56         6        22   1549.2146    241.7555     0.991     0.843 -13.85      1151.04
       147     89.41663  -4.8785  5.85  4.62         7         7     48.7167    242.1551     0.855     0.597  62.27      1145.51
       148     612.5154  -6.9678  3.50  4.62        24        29   1239.0688    251.0915     1.433     1.205  38.45     1147.172
       149     50.52661  -4.2588  7.65  9.90         3         4   1569.4999    245.9805     0.808     0.309  58.24      1151.25
       150     88.19067  -4.8636  4.58  6.60         5         8   1099.5106    245.9692     0.799     0.712   8.56     1146.071
       151     401.1304  -6.5082  4.99  5.94        21        26     84.4826    262.2019     1.361     1.277  41.14     1145.492
       152     60.52063  -4.4548  5.58  8.58         5         5   1863.7875    253.4346     0.750     0.450 -20.30     1147.325
       153     99.14856  -4.9907  7.72  5.28         8         8   2031.1140    257.1531     0.813     0.676 -44.30     1146.273
       154     366.3925  -6.4099  4.73  6.60        22        30    567.9559    271.0255     1.802     1.416  29.32       1145.2
       155     66.50659  -4.5572  6.29  5.28         4         6   1586.5098    262.3744     1.143     0.461  79.38     1151.886
       156     3514.311  -8.8646  3.79  4.62        67        83   1363.9454    284.1385     1.891     1.710 -34.87     1149.426
       157     337.7474  -6.3215  6.40  7.92        23        28    563.4382    273.8721     1.771     1.181 -34.26     1145.202
       158     89.63928  -4.8812  6.11 10.56         7         9   1999.6750    266.9587     0.924     0.685 -22.44     1146.551
       159      112.967  -5.1324  7.60  5.28         9         9   1524.0140    267.0307     0.796     0.761 -28.90     1151.701
       160     122.7983  -5.2230  8.33  7.92         5        10   1545.0090    266.5197     0.767     0.470  17.20     1151.821
       161     45.36902  -4.1419  3.50  7.26         3         3    886.3088    267.3456     0.572     0.336 -46.71     1145.258
       162     102.8425  -5.0304  7.37  4.62         8         8   1796.7449    273.6507     0.995     0.576 -72.23     1148.544
       163     53.71167  -4.3252  6.55  5.94         3         4   1312.4567    271.5461     0.504     0.492 -44.37     1148.386
       164     308.9274  -6.2246  4.69  6.60        19        24   1859.3888    286.4587     1.431     1.110  32.40     1147.796
       165     120.8723  -5.2058  5.11  5.28        10        10   1740.7162    282.3001     0.945     0.761  45.38     1149.556
       166     91.42981  -4.9027  7.27  9.24         6         9   1644.8955    286.2291     1.317     0.708 -78.72     1151.801
       167      51.8999  -4.2879  6.50  5.28         3         3   1506.3173    278.3034     0.557     0.343 -44.22     1151.915
       168     64.47363  -4.5235  7.40  4.62         4         5    744.3680    282.8153     0.745     0.447 -72.41     1145.122
       169     40.44348  -4.0171  5.20  7.26         3         3   1424.6747    280.6870     0.565     0.340 -44.37     1150.722
       170      2373.53  -8.4385  3.51  5.28        55        65    485.6010    300.7413     1.767     1.572  21.15     1145.261
       171     122.8369  -5.2233  5.63  9.90         7        10   1183.7024    288.3316     0.934     0.737  47.77     1146.931
       172     353.8615  -6.3721  5.02  7.26        21        27   1350.1967    295.7496     1.499     1.250  31.99     1149.271
       173     333.0782  -6.3064  7.06  8.58        20        26    826.0872    301.4073     1.814     1.084  72.78     1145.046
       174     1287.559  -7.7744  3.50  5.28        41        46    364.5520    301.2839     1.601     1.445  83.24     1145.386
       175     11602.69 -10.1614  3.50  4.62       109       120   1886.3414    317.6554     1.880     1.834 -55.69     1147.974
       176     357.5388  -6.3833  4.80  5.28        22        24    865.4346    302.5573     1.378     1.179   2.81     1145.189
       177     182.2826  -5.6519  4.29  7.26        11        16    339.9318    299.6714     1.281     0.955 -73.86      1145.41
       178     84.45813  -4.8166  7.41  7.92         6         7   1523.8313    299.4173     0.862     0.605 -80.19     1152.668
       179     248.7588  -5.9894  7.36 10.56        17        23   1547.6051    305.3757     1.571     1.172  24.84     1153.058
       180     653273.9 -14.5377  3.50  3.50      1620      1866    620.3366    492.6512     4.086     3.805 -45.93     1144.925
       181     31.93408  -3.7606  7.74  9.90         3         3    807.6658    299.3158     0.570     0.337  44.13     1145.061
       182     118.6132  -5.1853  7.39  7.92         9        11   1404.3611    305.0327     1.155     0.725  -1.68     1150.714
       183     130.2416  -5.2869  6.32  6.60        10        12   1377.9463    308.3556     1.074     0.847  56.87     1150.124
       184     264.2826  -6.0552  4.06  5.94        12        18    935.4323    314.3442     1.276     0.891 -77.23     1145.553
       185     91.06287  -4.8984  3.50  6.60         6         7   1242.1620    307.6594     0.876     0.598  29.62     1147.722
       186     67.62781  -4.5753  6.45 10.56         6         6    499.5294    305.4789     0.950     0.419 -18.57     1145.241
       187     318.3478  -6.2573  5.28  7.92        21        24    849.1174    317.5871     1.351     1.220 -81.89     1145.103
       188       67.203  -4.5685  4.73  5.94         4         5   1798.6237    315.1544     0.740     0.447 -71.60     1149.246
       189     529.5201  -6.8097  3.50  5.28        24        26   1171.0010    323.3463     1.285     1.200 -60.96     1147.084
       190     49.99414  -4.2473  5.73  5.28         3         3   1140.3181    313.3182     0.564     0.340 -45.00     1146.764
       191      31.0531  -3.7303  6.97  7.26         3         3   1077.6786    314.3356     0.573     0.336  45.64     1146.304
       192     90.13538  -4.8872  7.78 10.56         8         8   1505.1530    320.8687     0.824     0.666  46.47     1153.144
       193     64.50879  -4.5240  7.75  4.62         5         6    474.1616    323.1807     0.770     0.566  46.07     1145.259
       194     242.6584  -5.9625  6.30  4.62        15        18    935.8104    330.6344     1.316     0.946 -43.63     1145.584
       195     48.56677  -4.2158  4.12  6.60         4         4    688.7650    326.2157     0.853     0.347 -16.48     1145.104
       196     768.9266  -7.2147  6.99  7.26        38        48   1352.3279    342.2655     1.911     1.448  53.11     1150.227
       197     146.3101  -5.4132  6.67  7.26        10        13   1224.2827    331.0450     1.202     0.765  -1.39     1147.688
       198      24661.5 -10.9800  3.50  3.96       174       187   1411.3395    391.3445     2.144     2.039  83.14     1153.799
       199     900.7198  -7.3865  3.50  5.94        40        49   1714.6304    345.4154     1.888     1.558  42.61     1151.907
       200     26.59253  -3.5619  6.69  9.90         2         3    133.6736    332.6840     0.567     0.339 -44.48      1145.47
       201     486.0704  -6.7167  3.50  5.94        30        36    104.5270    348.9711     1.831     1.429 -58.99     1145.472
       202     47.39294  -4.1893  6.97  8.58         4         5    415.7900    334.6099     0.763     0.445  18.80     1145.317
       203     611.1814  -6.9654  4.57  6.60        27        28    538.5806    342.8596     1.406     1.187 -13.89     1145.155
       204     94.55566  -4.9392  3.50  3.96         4         6    692.4914    339.0900     0.724     0.500 -88.55      1145.07
       205     360.9507  -6.3936  4.34  5.28        18        22   2037.1659    347.7687     1.287     1.071  87.74     1146.504
       206     37.49194  -3.9348  7.13  8.58         3         3    514.9902    338.0000     0.855     0.289   0.00      1145.19
       207     185.7385  -5.6723  4.11  5.28        11        13    351.1023    349.9098     1.113     0.837  44.13     1145.393
       208     2626.617  -8.5485  4.07  7.92       122       153    491.3268    403.3650     4.637     2.004  76.22     1145.144
       209     374.2781  -6.4330  4.22  4.62        19        21    762.1966    357.5762     1.392     0.967  76.92     1144.982
       210     385.1204  -6.4640  3.82  5.94        22        26    507.7535    359.9334     1.420     1.166 -18.33     1145.174
       211     46.81763  -4.1760  7.90  9.90         3         5    449.5934    356.2004     0.753     0.455 -72.12     1145.247
       212     36.60083  -3.9087  3.61  5.28         2         3    264.6954    353.6876     0.555     0.344 -45.45     1145.445
       213     1845.556  -8.1653  3.50  5.28        47        54   1143.7263    375.8061     1.629     1.555 -88.80     1147.148
       214     31.78577  -3.7556  8.30 10.56         3         3   1997.0000    361.9999     0.858     0.289  90.00      1146.94
       215     95.79907  -4.9534  3.64  5.94         6         9    513.3050    367.5903     1.039     0.645 -83.32      1145.16
       216     337.2379  -6.3198  4.69  5.94        21        27    845.0745    376.7200     1.469     1.316  52.77     1144.992
       217      153.473  -5.4651  4.55  4.62        10        12    136.5125    378.1815     1.713     0.526  61.78     1145.462
       218     52.17163  -4.2936  6.90  4.62         4         4    187.7703    371.0260     0.684     0.420  88.82     1145.457
       219     302.0458  -6.2002  3.50  5.94        22        26    129.3593    386.4086     1.584     1.261 -43.47     1145.462
       220     42.28308  -4.0654  8.96 10.56         3         4   1932.4878    373.4622     0.505     0.493  41.87     1147.773
       221     12052.38 -10.2027  3.50  4.62       123       135    131.2889    406.8735     1.996     1.901  35.34     1145.458
       222     130.1959  -5.2865  7.15 10.56         9        12    656.4220    381.2570     1.071     0.792  32.42     1144.997
       223     64.79163  -4.5288  4.19  3.50         4         7    157.7158    382.0073     0.735     0.675 -86.46     1145.459
       224      523.389  -6.7971  5.48  7.26        34        46   1119.8915    402.8339     2.523     1.356  86.65     1146.904
       225     44.98975  -4.1328  8.18  7.26         3         3   1083.6594    381.6546     0.586     0.328 -45.18     1146.375
       226     2586.869  -8.5319  4.98  9.24        94       112   1970.6499    410.6222     2.704     2.148  24.14     1147.305
       227     735.8137  -7.1669  3.50  6.60        43        48   1810.9456    400.4474     2.152     1.483 -50.38     1150.629
       228     125.9008  -5.2501  6.76  6.60         9        10    512.5717    388.4791     1.130     0.694 -19.25     1145.138
       229     6434.369  -9.5213  3.50  4.62        88        98    997.5356    408.4237     1.869     1.784  -9.53      1145.98
       230     115.5344  -5.1568  6.18  6.60         6         9   1282.6472    392.0844     0.971     0.655  37.78     1149.884
       231      27.3584  -3.5927  8.29 10.56         2         3    885.3195    389.6502     0.578     0.333  46.28     1145.254
       232     4262.417  -9.0741  4.50  5.94       140       157   1936.1482    420.7514     2.912     2.478  29.60     1147.884
       233     55.07605  -4.3524  7.65  7.92         4         6    622.0131    399.6926     1.145     0.462  72.02         1145
       234     292.9429  -6.1670  6.23 10.56        20        29   1982.0725    413.3300     2.088     1.213  27.79     1147.134
       235     128.0493  -5.2684  7.40  7.92         9        12    869.9819    410.8650     1.166     0.733  80.21     1145.128
       236     626.4142  -6.9922  5.98  5.94        29        33   1981.9042    419.8970     1.635     1.226 -85.29     1147.135
       237     282.7784  -6.1286  5.07  6.60        20        22   1647.9526    417.4081     1.723     1.208  80.63     1156.297
       238     254.8308  -6.0156  4.95  7.26        15        17    946.6327    412.7758     1.169     0.948 -71.05     1145.709
       239     6676.078  -9.5613  4.33  5.28       188       209   1338.6609    447.7617     3.232     3.041 -21.81     1152.623
       240     2841.242  -8.6338  3.50  5.94        84        93    379.4617    428.6158     2.475     1.775  -5.02     1145.304
       241     518.8893  -6.7877  4.34  9.90        29        34   2000.0427    421.6065     1.528     1.444 -11.73     1146.841
       242     69710.38 -12.1082  3.50  3.96       268       305    981.4100    469.2953     2.215     2.185 -36.47     1146.008
       243     388.0939  -6.4723  6.93  5.28        22        28   1949.3811    432.3831     1.580     1.264 -66.70       1147.7
       244     179.0198  -5.6323  5.65  6.60        12        15    529.0417    426.7297     1.242     0.840 -27.03     1145.079
       245     64.18311  -4.5186  7.01  9.90         4         5    352.7912    428.7910     0.960     0.348 -46.13     1145.359
       246     43.93372  -4.1070  6.02  7.26         3         3    356.3109    428.3373     0.569     0.337 -46.27     1145.353
       247     260.1506  -6.0381  4.13  6.60        13        20   1661.1250    445.2927     1.533     0.949  45.31     1156.973
       248     4002.764  -9.0059  3.68  4.62        80        88   1064.9403    460.0385     1.882     1.788  12.34     1146.354
       249     616.0632  -6.9741  5.31  5.28        28        34   1980.6577    452.2576     1.565     1.291  53.70     1147.152
       250     36.50769  -3.9060  7.19  9.90         2         3    670.3203    439.6852     0.564     0.340  44.72     1144.849
       251     34.37573  -3.8406  8.63 10.56         3         3    973.6499    440.3262     0.581     0.331  44.03       1145.9
       252      1509.03  -7.9467  3.50  6.60        67        76   1770.1393    464.5399     2.301     1.969 -26.65      1153.58
       253     494.4081  -6.7352  5.64  5.94        23        28    856.8136    452.2628     1.451     1.157  48.38     1144.983
       254     35.64844  -3.8801  7.38  9.24         3         3    690.0000    447.0100     0.857     0.289  90.00     1144.795
       255     113.8785  -5.1411  7.45  4.62         4         9   1143.3934    451.7890     1.021     0.398   5.42     1147.535
       256     56.50549  -4.3802  7.56 10.56         5         5    724.4175    451.2452     0.765     0.450  70.88     1144.763
       257     49.60278  -4.2388  3.50  6.60         3         3    264.7314    449.6469     0.556     0.341 -49.79     1145.436
       258     952.8015  -7.4475  4.42  5.94        38        44   1874.3463    466.1852     1.739     1.418 -58.37     1149.152
       259     267.2128  -6.0671  3.50  7.92        20        23    380.6906    468.1705     1.609     1.026 -55.81     1145.293
       260     162.5968  -5.5278  5.23  4.62        10        12    162.3511    467.4647     1.024     0.793 -33.62      1145.45
       261     79.25342  -4.7475  3.50  5.28         6         6    453.5295    463.3264     0.906     0.469  -0.53     1145.135
       262     1050.399  -7.5534  5.51 10.56        51        63   1744.2863    492.0126     2.203     1.606  67.34     1155.036
       263     95.13782  -4.9459  7.13  9.24         8         8   1074.7356    472.1111     1.095     0.517 -36.01     1146.463
       264     812.3696  -7.2744  8.20 10.56        45        63   1680.2717    493.6226     2.305     1.912  59.50     1157.201
       265     192.0934  -5.7088  6.94  7.26        15        15    768.3658    476.3718     1.551     0.831  -2.89      1144.77
       266      605.676  -6.9556  6.41 10.56        34        38    760.4907    484.8634     1.653     1.543 -72.82     1144.768
       267     53.53821  -4.3217  8.85  9.90         3         5   1129.8082    478.5840     1.032     0.385 -84.99     1147.369
       268     223.1862  -5.8717  8.87  3.50         9        21   1435.6055   1012.1879     1.771     0.756  78.06     1149.077
       269     39.71326  -3.9973  8.00 10.56         3         4   2007.5253   1487.4802     0.500     0.499  48.64     1145.558
       270     241.2234  -5.9560  5.36  6.60        14        16    747.4885   1485.9235     1.148     0.959  63.27     1145.492
       271     178.2526  -5.6276  6.42  7.92        12        16    495.3255   1486.4230     1.188     0.964  66.99     1145.499
       272     138.6594  -5.3549  7.21  7.26         9        13   1633.4410   1483.4841     1.203     0.873  78.53     1144.654
       273     31.92346  -3.7603  7.55  6.60         3         3   1971.7073    713.6561     0.563     0.339 -47.64     1146.819
       274      301.151  -6.1970  6.88 10.56        20        24   1129.2366    708.1382     1.475     1.209 -76.11     1147.499
       275     31.30859  -3.7392  8.66 10.56         2         3    393.6490    913.3271     0.582     0.330  44.04      1145.25
       276     76.73145  -4.7124  8.54  7.92         5         8   1947.7622    707.1218     1.701     0.541 -26.66     1147.381
       277     860.0538  -7.3363  3.50  5.94        43        51    614.1743    862.5866     2.084     1.544 -74.49     1145.133
       278     84.54956  -4.8178  6.67  6.60         6         7    124.8455    912.7319     0.895     0.586 -32.01     1145.493
       279     69.52515  -4.6054  8.15  9.24         6         6   1548.4563    943.0363     0.799     0.498 -88.81     1151.671
       280      878.791  -7.3597  5.23  5.94        37        44   1275.0920    700.0433     1.804     1.416  33.68     1151.977
       281     152.0338  -5.4549  5.22  3.50        10        16     36.0274    702.0974     1.350     0.972 -44.54     1145.447
       282     61.23181  -4.4674  6.90  8.58         4         5   1970.0223    703.0220     0.630     0.611  -1.21     1146.908
       283     87.16272  -4.8508  8.47  4.62         5         7   1586.7446    864.3815     0.769     0.680 -89.23     1155.108
       284     364.6671  -6.4047  9.20 10.56        15        29   1587.4042    849.2149     2.201     0.779  -8.65     1155.788
       285     98.10059  -4.9792  7.31  5.28         7         7   1588.2351    860.6013     1.086     0.493   9.43     1155.244
       286     139.7435  -5.3633  9.27 10.56         9        13   1583.9851    860.7966     1.358     0.802  52.83     1155.242
       287     53.97229  -4.3304  8.58  8.58         4         5   1916.8030    700.6263     0.776     0.444  17.58     1148.094
       288     373.4536  -6.4306  9.12 10.56        11        34   1592.2666    855.4365     1.756     0.849   9.94      1155.52
       289      150.416  -5.4432  8.82 10.56         9        14   1924.7100    695.9237     1.993     0.724  27.46     1147.927
       290       221.66  -5.8642  8.64 10.56        17        19   1564.7544    851.9056     1.408     1.057   9.49     1155.631
       291     116.1095  -5.1622  5.75  4.62         9         9    606.7276    694.8542     0.928     0.682 -23.57     1145.004
       292     273.4728  -6.0923  6.06  6.60        22        25   1737.6256    691.9733     1.879     1.157  39.50     1156.043
       293     130.1088  -5.2858  7.19  7.26         9        11    251.6304    694.1198     1.030     0.732 -16.63     1145.356
       294     485.0332  -6.7144  8.17 10.56        29        48   1885.4197    689.4373     2.385     1.550   3.70     1148.842
       295      33.5072  -3.8128  4.70  9.90         2         3    853.3174    693.6821     0.564     0.340  45.02     1145.206
       296     251.1964  -6.0000  3.50  5.94        16        19   1097.3853    691.3571     1.433     0.921   3.38     1147.203
       297     295.3936  -6.1760  5.91  5.94        21        23   1999.1172    687.6684     1.861     0.949  74.17      1146.28
       298     107.1335  -5.0748  7.66 10.56         7        10   1730.9883    909.3258     1.062     0.742 -42.72     1148.716
       299     107.0808  -5.0743  5.67  4.62         7         8   1757.1758    692.7020     1.004     0.625  -7.84     1154.991
       300     5548.146  -9.3604  4.39  6.60       176       207   1277.3134    681.9272     3.339     2.767 -65.36     1152.152
       301     373.0438  -6.4294  9.33 10.56        20        34   1566.3740    857.4322     2.266     1.008  12.10     1155.411
       302     171.4698  -5.5855  8.52 10.56        10        15   1870.4984    684.4817     1.440     1.299  30.31     1149.195
       303     69.57947  -4.6062  6.54 10.56         4         5   1874.4972    685.4891     0.768     0.460 -71.43     1149.102
       304     165.4153  -5.5464  8.55 10.56        10        14   1860.4109    682.3448     1.692     0.876 -15.79     1149.427
       305     124.4034  -5.2371  9.30  5.28         7        11   1855.5143    679.9994     1.452     0.600  32.11     1149.556
       306      504.718  -6.7576  8.98 10.56        32        42   1552.6522    848.0000     3.577     0.844  13.96     1155.795
       307     111.5841  -5.1190  6.09  8.58         8        10    891.6818    861.3652     0.943     0.801 -35.45     1145.641
       308     2232.064  -8.3718  4.11  5.94        85        99   1292.5601    678.2667     2.445     2.140  57.90     1153.136
       309     89.38635  -4.8782  8.72  3.50         7         9   1586.6329    938.4281     1.194     1.017  35.20     1151.752
       310      2076.42  -8.2933  7.41 10.56        48       193   1822.1152    672.2395    10.295     1.768  12.18     1151.445
       311      717.399  -7.1394  7.82 10.56        49        66   1803.2175    668.2231     6.197     1.342  29.25     1152.493
       312     364.2538  -6.4035  7.93 10.56        26        33   1807.3800    667.3674     1.981     1.653  54.92     1152.276
       313     173.8601  -5.6005  3.50  6.60        12        16   1302.6832    677.3870     1.380     0.861 -42.32     1153.745
       314     128.2115  -5.2698  3.50  7.26         8         9    990.3569    863.7422     0.865     0.740 -15.16     1146.254
       315     2020.135  -8.2635  9.09 10.56        59       195   1547.0818    856.3155     3.174     2.342 -66.33     1155.441
       316     39.82971  -4.0005  3.50  0.00         3         3    250.6684    938.3291     0.575     0.335  44.89     1145.392
       317     69.69836  -4.6081  5.06  7.26         5         6    921.5236    859.9750     0.784     0.499  88.84     1145.861
       318     369.8295  -6.4200  9.80 10.56         9        36   1578.4369    856.3831     1.483     0.745 -35.15     1155.464
       319     135.4955  -5.3298  4.95  4.62        11        11   1062.7513    666.3091     1.115     0.758 -52.59     1146.961
       320      547.377  -6.8457  8.82 10.56        19        49   1558.2327    907.6918     1.868     1.263 -40.06     1153.169
       321     297.8536  -6.1850  7.81 10.56        19        22   1810.4163    660.1247     1.489     1.186  54.49     1152.127
       322     34.83667  -3.8551  7.52  7.26         2         3   1816.3351    909.6912     0.567     0.338  43.70     1147.805
       323     255.1348  -6.0169  9.12 10.56        15        24   1564.9078    832.5569     2.376     0.898  22.71     1156.472
       324     1615.744  -8.0209  9.67 10.56        26       149   1531.1816    853.2277     2.216     1.845 -80.50     1155.557
       325     632.5548  -7.0027  9.12 10.56        35        60   1541.4479    834.1439     2.726     1.651   3.78     1156.383
       326     30.93335  -3.7261  5.61  9.90         2         3   1204.6914    857.6386     0.578     0.332 -47.23     1147.423
       327     79.66895  -4.7532  9.00 10.56         3         8    493.5374    856.4857     0.501     0.497 -53.87     1145.171
       328     353.7643  -6.3718  9.22 10.56        24        34   1537.9631    837.7885     2.085     1.688  80.37     1156.206
       329     43.70764  -4.1014  3.74  9.90         3         3   1210.3037    653.6247     0.581     0.329  47.88     1148.565
       330     331.4921  -6.3012  6.91  5.94        18        30   1286.5717    648.9694     2.290     0.826  50.57     1152.843
       331     48528.04 -11.7150  3.50  3.96       241       262   1229.5853    901.0604     2.188     2.130 -48.03     1147.554
       332     36.91138  -3.9179  8.22 10.56         2         3    554.3209    649.6470     0.580     0.331  46.32     1145.043
       333     700.6174  -7.1137  3.50  5.28        30        36    928.9423    642.0763     1.533     1.389 -86.31      1145.96
       334     153.7256  -5.4669  6.67  6.60        11        12    393.7799    643.8815     1.179     0.720   8.96     1145.259
       335     238.6681  -5.9445  4.87  5.28        12        15    487.3930    640.9017     1.015     0.945 -53.52     1145.149
       336     1116.678  -7.6198  3.60  6.60        54        66    401.0528    634.0795     2.256     1.856 -81.94      1145.26
       337     228.6443  -5.8979  3.50  5.28        15        17    415.2357    643.3202     1.394     0.994 -81.96      1145.24
       338     813.7163  -7.2762  3.50  5.28        39        46      4.0029    632.4233     1.789     1.632  16.31     1145.449
       339      98.6178  -4.9849  6.48 10.56         7         9   1897.9825    632.9450     0.798     0.774   9.60     1148.699
       340     132.2139  -5.3032  6.32  4.62         8        11    665.0565    630.6198     1.048     0.753 -74.36     1144.906
       341     483.0983  -6.7101  4.09  5.94        25        29     32.7278    626.9815     1.497     1.283 -76.06     1145.449
       342       647.49  -7.0281  9.38 10.56        40        60   1548.5205    838.7114     3.867     1.332  -9.82     1156.181
       343     382.3783  -6.4562  6.06  6.60        19        23    729.1413    849.0845     1.332     1.119 -78.62     1145.151
       344     33.91992  -3.8261  4.80  7.26         2         3   1984.6517    623.3272     0.581     0.331  44.14     1146.689
       345      277.566  -6.1084  5.38  7.92        19        21   1781.8708    936.1407     1.387     1.014  57.87      1147.77
       346      281.901  -6.1252  9.71 10.56        16        29   1566.4276    861.5637     1.957     1.026  16.72      1155.19
       347     138.3806  -5.3527  6.33  8.58         9        14    590.1584    619.6635     1.444     0.807 -15.28     1144.988
       348     43.27014  -4.0905  3.50  5.28         3         3    320.6468    844.3143     0.577     0.333  43.33     1145.245
       349     5700.257  -9.3897  3.50  4.62        79        95    700.6522    607.4109     1.853     1.731 -34.28     1144.822
       350     388.5558  -6.4736  6.28  4.62        21        25   1996.9038    840.2259     1.469     1.162  74.95     1146.019
       351     1203.646  -7.7012  3.90  6.60        62        77    460.2502    606.5500     2.796     1.758  42.19     1145.201
       352      596.328  -6.9387  3.50  5.94        28        32   1309.9811    608.1467     1.568     1.225 -43.54     1154.273
       353      33.6709  -3.8181  5.54  6.60         3         3    217.6675    610.7031     0.561     0.341 -43.09     1145.435
       354     576.9537  -6.9029  3.90  5.94        27        31    860.5849    844.4125     1.422     1.292 -63.28     1145.416
       355     61.29871  -4.4686  8.40  7.26         4         5   1711.4250    842.2422     0.737     0.456  70.67     1151.221
       356     269.6823  -6.0771  8.45  6.60        13        22   1717.2686    600.6998     1.175     0.971 -23.41     1156.952
       357     5538.823  -9.3585  3.50  4.62        82        90    798.1528    838.1635     1.867     1.728 -38.98     1145.189
       358     1156.195  -7.6576  3.50  5.28        34        44    725.3356    839.8975     1.536     1.479  39.23     1145.144
       359     723.0597  -7.1479  3.83  7.92        38        51    352.4336    838.4233     2.072     1.452  58.26     1145.228
       360     743.2313  -7.1778  4.29  5.94        29        35   1999.4833    905.6006     1.419     1.386 -17.43     1146.004
       361     2521.991  -8.5044  3.95  5.28        59        63    675.3043    595.4124     1.677     1.622  23.11     1144.843
       362     30.71973  -3.7185  3.50  9.90         2         3   1077.3392    596.6523     0.586     0.328  45.32      1147.04
       363     36.41187  -3.9031  6.74  6.60         3         3   1873.9978    595.0000     0.858     0.289   0.00     1149.372
       364     124.8881  -5.2413  4.27  6.60         7        11   1041.1871    590.1794     0.916     0.852 -61.83     1146.797
       365     217.6694  -5.8445  6.21  7.92        15        17    700.9054    589.0642     1.238     1.035  42.53     1144.789
       366     91.94885  -4.9089  6.09  4.62         6         6    992.6506    838.5548     0.885     0.476  88.13     1146.302
       367     118.4834  -5.1841  8.09  6.60         8        10   1508.3015    837.6928     0.929     0.764  44.74     1156.156
       368     48.18774  -4.2073  6.64  5.28         3         4    134.7504    584.7001     0.839     0.358  71.30      1145.45
       369     783.5165  -7.2351  3.50  6.60        31        38   1079.8003    582.5400     1.610     1.352  -4.14     1147.058
       370     315.6689  -6.2481  6.40 10.56        19        25   1785.1315    580.6530     1.512     1.180  34.73     1153.601
       371     739.0393  -7.1717  9.21 10.56        32        65   1533.8438    844.5887     4.024     1.150 -27.82     1155.901
       372     35.64478  -3.8800  4.71  9.90         2         3    175.6872    582.3289     0.566     0.339  45.80      1145.45
       373      18794.1 -10.6851  3.50  3.96       155       174   1989.7489    573.3868     2.075     1.938 -77.95     1146.646
       374     930.6976  -7.4220  3.50  5.28        34        38    221.0525    830.4221     1.510     1.339  71.57       1145.4
       375     8906.106  -9.8742  4.81  5.94       334       380   1340.5656    568.1956     4.635     4.046 -56.37     1155.833
       376      49.4425  -4.2353  8.14  7.92         4         4    500.0063    581.4968     0.805     0.310 -31.84     1145.138
       377     38.00232  -3.9495  7.78  9.24         3         3   1864.2849    832.3287     0.553     0.344 -47.59     1147.376
       378     70.43506  -4.6195  4.53  6.60         5         7    532.6737    577.0634     0.749     0.674 -82.08      1145.08
       379     64.27429  -4.5201  8.26  3.96         5         6   1135.1967    576.0126     0.942     0.473  53.18     1147.816
       380     717.8722  -7.1401  7.57 10.56        41        54   1616.3290    828.9794     1.880     1.818  66.91     1155.982
       381     1148.453  -7.6503  4.36  5.94        36        44   1835.2800    569.7260     1.573     1.394  20.28     1150.957
       382      353.842  -6.3720  4.13  5.94        20        29    393.6989    933.0986     1.562     1.122 -33.37      1145.26
       383     48.33557  -4.2107  7.81  7.92         3         4   1803.5281    906.4704     0.500     0.499 -42.47     1147.974
       384     36.20361  -3.8969  3.99  9.90         3         3   1191.3112    571.6780     0.563     0.341  45.57     1148.666
       385     291.0568  -6.1599  8.62  3.50        20        25   1586.2820    826.7615     2.356     0.964 -74.03     1156.701
       386     33.37976  -3.8087  6.06  7.26         2         3   1210.2963    569.3519     0.568     0.337 -47.68     1148.958
       387     19.64783  -3.2333  7.88  9.90         1         3     84.3198    569.3279     0.569     0.338 -45.39      1145.45
       388     79.01294  -4.7442  4.54  9.24         6         7    640.3336    565.8737     0.859     0.603  60.73     1144.883
       389     37.09338  -3.9232  6.31  9.90         3         3    983.3469    829.7168     0.560     0.340  41.58     1146.268
       390     412.8845  -6.5396  8.71 10.56        33        39   1547.9263    826.6708     2.490     1.423  -1.96     1156.632
       391     170.5858  -5.5799  6.55  9.90         7        14    218.3649    560.1564     0.862     0.822 -57.39     1145.446
       392     1975.392  -8.2391  8.73 10.56       110       172   1525.2013    804.4040     8.334     3.069  29.80     1157.337
       393     80.39148  -4.7630  7.38  7.26         6         8    926.8439    562.0786     0.854     0.671  45.26     1145.822
       394     138.7198  -5.3553  7.89  8.58        10        11   1076.5326    559.8314     1.024     0.811  38.31     1146.946
       395     140.4899  -5.3691  8.71  7.26        11        12   1576.6974    904.4193     1.097     0.825  42.13     1153.311
       396     114.9772  -5.1515  6.55  9.24         9        11   1699.9041    821.3074     1.052     0.748 -74.25     1152.493
       397     52.25525  -4.2953  8.92  4.62         5         5    872.1943    559.6131     0.755     0.449 -18.09      1145.21
       398     659.0118  -7.0472  4.60  5.94        34        36    379.2457    822.5783     1.499     1.427  34.58     1145.214
       399     1371.723  -7.8432  3.52  5.28        40        44    249.8843    819.1108     1.521     1.443  45.49     1145.352
       400     116.3677  -5.1646  7.84 10.56         5        11   1624.0277    904.3033     0.745     0.679  12.61     1152.478
       401     34.43347  -3.8425  6.71  9.90         2         3    637.6067    556.2983     0.585     0.325  41.44     1144.887
       402     1350.873  -7.8265  4.66  5.28        36        40   1911.8236    551.1378     1.455     1.375 -82.77     1148.492
       403      39.0874  -3.9801  5.11  7.92         3         3   1162.7159    811.3249     0.551     0.345  47.47     1147.351
       404     41.87317  -4.0548  7.11  7.92         3         4    669.7634    548.7238     0.850     0.356  72.49     1144.826
       405     777.9285  -7.2273  6.02  5.94        32        39   1732.6696    546.6851     1.485     1.400  38.87     1156.062
       406     29377.67 -11.1700  3.94  3.50       452       641   1553.6262    808.5362     4.355     3.639 -10.83      1157.22
       407     302.7972  -6.2029  6.36  5.28        18        22    746.4853    545.2853     1.395     1.068 -50.80     1144.766
       408     533.1427  -6.8171  3.69  7.26        30        33   1861.8362    543.9346     1.496     1.393 -82.17     1149.615
       409     76.45325  -4.7085  7.61  8.58         4         6   1319.0133    810.4305     0.783     0.495  -0.44     1151.251
       410     46.65271  -4.1722  6.98  5.28         3         3     29.3300    545.3300     0.574     0.335 -45.00      1145.45
       411     41.93201  -4.0564  5.21  9.90         3         3    712.6750    541.6921     0.562     0.341 -44.10     1144.761
       412       46.578  -4.1705  3.50  5.28         3         3    484.3018    538.7053     0.546     0.347  44.54     1145.146
       413     36.88745  -3.9172  5.92 10.56         3         3   1141.2987    535.6338     0.575     0.333  47.95     1147.774
       414     2148.865  -8.3305  6.51 10.56        71       123   1714.4215    527.8956     2.578     1.962 -15.83     1156.564
       415     203.0692  -5.7691  7.20  9.24        14        17    791.4573    529.9713     1.299     0.988 -89.99     1144.773
       416     440.8671  -6.6108  5.14  7.26        25        32    367.4433    811.1889     1.771     1.455 -44.90     1145.219
       417     156.8207  -5.4885  6.59  9.24         9        12    878.4066    526.4469     0.930     0.876  -9.19      1145.24
       418     33.19958  -3.8028  6.39 10.56         2         3   1156.3163    809.6304     0.585     0.328  47.05     1147.307
       419     182.5913  -5.6537  6.32  9.24        10        16    469.4846    525.1938     1.268     0.902  63.90      1145.16
       420     259.5858  -6.0357  7.59  9.24        16        19   1313.4972   1306.4956     1.525     0.992  -0.80     1145.141
       421     175.1886  -5.6088  8.92 10.56        12        17   1253.6135    514.2860     1.536     0.913  -7.29     1150.663
       422     173.4541  -5.5980  6.18  7.26        14        15   1193.8618    807.1687     1.286     0.864   3.31     1147.587
       423       628.67  -6.9961  4.33  5.94        23        31    702.4871    806.2451     1.460     1.251 -34.15       1145.1
       424     172.6892  -5.5932  8.87 10.56        10        15   1260.8369    516.1021     1.322     1.222   2.69     1150.984
       425     39.85278  -4.0011  7.82  6.60         3         4   2043.2319    513.0356     0.705     0.422 -88.52     1145.694
       426     2464.054  -8.4791  7.77 10.56       136       175   1540.3627    800.9822     4.812     2.510  66.15     1157.456
       427      105.713  -5.0603  3.95  6.60         7         9   1013.1555    511.2591     1.451     0.496  16.54     1146.329
       428      283.847  -6.1327  3.75  5.94        19        22    217.2816    509.4949     1.370     1.110 -89.46     1145.446
       429     246.2451  -5.9784  8.16 10.56        18        22   1224.2943    507.3794     1.908     0.975  29.57     1149.359
       430      120.427  -5.2018  8.24  6.60        11        12   1222.4895    501.7166     1.313     0.819 -25.44      1149.27
       431     182.3689  -5.6524  3.50  6.60        10        12    468.4267    508.5099     0.903     0.874   2.33     1145.151
       432     37.02173  -3.9211  7.75 10.56         2         3   1835.2958    520.6099     0.583     0.327  48.66     1150.749
       433     166.5426  -5.5538  6.42  7.26        12        15   1647.8036    801.6813     1.652     0.709  67.02     1155.514
       434     408.1722  -6.5271  8.55 10.56        11        38   1234.3693    506.4358     1.787     0.602  -1.07     1149.772
       435     63.87476  -4.5133  8.37  4.62         5         5   1215.2308    506.3909     0.745     0.449  18.73     1149.031
       436      395.936  -6.4941  6.49 10.56        22        29   2006.8121    800.3702     1.661     1.245 -34.99     1145.959
       437     71.94849  -4.6426  7.64  5.28         5         6   1992.0074    504.5014     0.792     0.500  -0.88     1146.796
       438     62628.36 -11.9919  3.50  3.96       266       291    843.2952    788.4551     2.245     2.142 -65.50     1145.226
       439     165.3909  -5.5463  7.94 10.56         7        17    609.7529    529.8964     1.277     0.772 -67.03     1144.942
       440     263.5529  -6.0522  6.01  8.58        17        24    574.3601    798.2142     1.884     1.138 -56.19     1145.097
       441     984.3898  -7.4829  5.52  7.92        47        54   1342.8882    497.6892     1.919     1.649  84.37     1154.074
       442     181.8361  -5.6492  9.13 10.56         9        16   1208.1460    499.6159     1.594     0.775  -3.65       1148.9
       443     96.70239  -4.9636  8.64 10.56         7        10   1196.0167    499.5065     1.080     0.652 -63.10     1148.677
       444     850.6465  -7.3244  3.85  6.60        31        39    479.3441    496.8498     1.615     1.353 -19.31      1145.13
       445     99.75452  -4.9973  6.73  3.50         6         8   1431.4364   1478.2499     1.524     0.629  78.70     1144.661
       446     967.7108  -7.4644  6.52 10.56        56        75   1546.0431   1475.8048     2.693     1.850  -6.43     1144.583
       447     213.5066  -5.8235  3.50  5.94        15        18   1317.1392    796.3918     1.621     0.849 -56.63     1151.632
       448     52.32361  -4.2967  8.23 10.56         4         4    854.5006    498.5213     0.501     0.498 -40.02      1144.99
       449     53.16211  -4.3140  8.17  9.24         4         5   2015.6362    797.1641     0.754     0.444 -72.38     1145.842
       450     139.2731  -5.3597  7.05  5.94         9        11   1619.2992    819.2204     1.025     0.763  48.30     1156.179
       451      326.921  -6.2861  8.72 10.56        14        28   1187.5981    495.8794     1.755     0.987 -10.76     1148.523
       452     390.9973  -6.4804  7.60 10.56        21        29   1508.9070    793.0519     1.491     1.282   5.48     1157.673
       453     805.6597  -7.2654  4.97  5.94        29        39    244.8721    490.9188     1.495     1.354  82.14      1145.44
       454     248.3234  -5.9875  9.00 10.56        12        20   1554.8348    901.0422     1.580     0.779 -25.04      1153.48
       455     61201.93 -11.9669  3.50  3.96       258       289    318.8787    814.0722     2.223     2.130 -68.13     1145.238
       456     100.0568  -5.0006  8.49  8.58         7         9   1844.6345    781.3319     1.123     0.617 -76.85      1148.69
       457      47.4126  -4.1897  4.93  5.28         3         3   1922.6809    788.3149     0.563     0.341  44.78     1147.182
       458     320.3361  -6.2640  7.00  5.94        18        24   1398.1226    486.8018     1.432     1.226 -49.23     1156.203
       459     48.65137  -4.2177  8.62  7.92         3         4    497.5132    488.4962     0.504     0.496 -45.62     1145.102
       460     337.0908  -6.3194  3.50  7.26        18        23    876.9357   1477.2252     1.300     1.115  34.66     1145.488
       461     125.3701  -5.2455  6.71  7.92         9        10    126.9532    780.7958     0.947     0.744  60.55     1145.446
       462     53.01526  -4.3110  4.27  8.58         4         4   1161.7728    482.9255     0.682     0.418 -86.66     1148.003
       463     385.9202  -6.4662  8.13 10.56        21        34   1553.8018    928.5262     1.616     1.064  83.14      1152.26
       464     43.11731  -4.0866  6.51  9.90         3         3   1140.3776    482.3226     0.591     0.324 -43.06     1147.574
       465     229.4637  -5.9018  8.66 10.56        14        21   1548.4247    903.0197     1.661     0.890  16.73     1153.405
       466      24006.5 -10.9508  3.50  4.62       167       182   1181.6279    908.9440     2.076     1.986 -79.74     1147.074
       467     28.50964  -3.6375  6.97  9.90         3         3    827.9974   1424.0000     0.840     0.289   0.00     1145.488
       468     1201.365  -7.6992  4.75  5.28        39        46   1956.4315    786.9893     1.529     1.480  79.80     1146.714
       469     45.75989  -4.1512  6.05  9.90         3         4   2020.4966    484.5253     0.510     0.489 -44.15     1146.298
       470     446.2606  -6.6240  9.40 10.56        18        42   1535.3674    899.1060     2.304     1.559  75.17     1153.597
       471     43.84534  -4.1048  9.04 10.56         4         5   1079.5840    897.8078     0.758     0.454  71.50      1146.44
       472      593.597  -6.9337  4.30  5.94        31        39    210.7475   1479.0204     1.701     1.463 -55.75     1145.047
       473     40.86401  -4.0284  5.43  9.90         3         3   1230.3486    772.6758     0.580     0.332  43.99      1148.53
       474     7197.338  -9.6429  3.50  4.62        90       102   1280.0334   1474.4318     1.884     1.761 -56.06     1144.855
       475     45.50098  -4.1451  9.24 10.56         4         4   1712.5128    897.4980     0.502     0.498 -46.02     1149.607
       476     411.6405  -6.5363  4.33  5.94        18        24   1631.7628   1462.2450     1.313     1.074 -54.93     1144.856
       477     172.8254  -5.5940  6.20 10.56        12        15    194.6279   1459.9449     1.238     0.884 -31.39     1145.064
       478     544.8683  -6.8407  5.42  6.60        31        37   1298.1100   1449.6158     1.626     1.472 -85.28      1144.85
       479     1038.953  -7.5415  3.50  5.28        34        39    117.4901   1469.4282     1.565     1.329 -49.17     1145.018
       480      422.026  -6.5633  4.47  5.94        28        33    378.6386    765.2922     1.906     1.184  42.51     1145.214
       481     56.37488  -4.3777  7.53 10.56         5         5   1377.5747    928.2388     0.760     0.454 -71.30     1149.606
       482     31131.14 -11.2330  3.50  3.96       189       225   1274.0736   1438.7278     2.172     2.041 -50.40     1144.844
       483     821.5908  -7.2866  3.76  7.26        41        50    516.2105   1471.4552     2.721     1.301  58.38     1145.501
       484     997.3811  -7.4972  3.50  5.94        29        39   1882.9775    924.7358     1.457     1.358 -86.30     1147.118
       485     165.2173  -5.5451  7.15  7.26        14        16   1352.3721    895.1313     1.323     0.926  47.88     1149.745
       486     545.3943  -6.8418  8.89 10.56        18        49   1579.6219    888.3315     1.917     1.361 -54.56     1154.026
       487     247.7443  -5.9850  8.97 10.56         7        22   1584.4883    891.5466     1.052     0.500  89.12     1153.841
       488     782.8558  -7.2342  3.73  6.60        44        47    187.9938    517.8620     1.924     1.541 -35.57      1145.45
       489     797.0321  -7.2537  4.06  6.60        35        37   1162.0436   1415.0262     1.467     1.416 -12.33     1144.932
       490     396.7313  -6.4962  4.95  5.94        22        26     96.1216   1446.9518     1.389     1.273  78.35     1145.121
       491     24718.14 -10.9825  3.50  4.62       162       173    210.4450   1433.7665     2.073     1.981 -46.59     1145.219
       492     156.2244  -5.4844  7.60 10.56         8        13    782.5113    760.4169     0.975     0.750 -87.19      1145.08
       493     7899.655  -9.7440  3.50  4.62        99       108     32.6757   1418.7551     1.967     1.812 -37.31     1145.261
       494     57.42017  -4.3977  6.06  7.92         4         4   1742.4457   1459.0437     0.784     0.316 -57.71     1145.163
       495     320.6656  -6.2651  8.82 10.56        18        29   1554.6481    887.5695     1.444     1.196  63.76     1154.049
       496     1790.432  -8.1324  4.30  5.28        49        54    725.5231    756.9756     1.617     1.577 -35.59     1145.059
       497     570.8584  -6.8913  8.54 10.56        19        52   1548.4403    885.8721     1.421     1.209  77.01     1154.142
       498     244.1782  -5.9693  9.11 10.56        16        23   1543.7894    877.8029     2.006     1.004 -15.42      1154.49
       499     743.8752  -7.1788  9.34 10.56        36        70   1534.1711    871.6472     2.616     1.799  88.34      1154.75
       500     201.1429  -5.7588  3.50  5.94        15        17   1829.2599   1445.5020     1.747     0.758 -15.31     1145.241
       501      189.531  -5.6942  9.22 10.56         7        18   1534.7562    926.3792     1.103     0.647 -88.47     1152.445
       502     76.69238  -4.7119  6.69  7.92         5         6    658.2076    752.7566     0.755     0.553 -48.56     1145.051
       503     1363.944  -7.8370  3.50  6.60        67        76     24.2275   1429.6593     2.516     1.752 -50.46     1145.208
       504     250.7017  -5.9979  9.05  3.96        12        21   1534.8662    887.1093     1.335     0.809 -11.82     1154.109
       505     341.3492  -6.3330  3.50  5.94        19        22   1768.9622    709.4275     1.382     1.029  61.21     1154.169
       506     160.3365  -5.5126  5.83  7.92        11        13   1864.3397    758.6502     1.251     0.821 -89.02     1148.461
       507     5476.786  -9.3463  3.62  4.62        89       105   1310.0353    921.4652     1.981     1.804 -67.81     1148.372
       508     8347.004  -9.8038  3.50  3.96       105       125   1237.0977    743.0847     1.965     1.921  20.62     1149.179
       509     117.8239  -5.1781  6.96 10.56         8        11    726.0847    747.7139     0.970     0.902   1.07     1145.049
       510      41230.2 -11.5380  3.50  4.62       195       214    285.4437    739.7535     2.093     2.037 -65.73     1145.294
       511     173.7515  -5.5998  7.93 10.56         8        16   1569.6104    925.6362     1.169     0.565  45.22     1152.345
       512       32.625  -3.7839  7.43  3.50         2         3   1890.3680    744.7021     0.575     0.333  41.95      1148.19
       513     38.89136  -3.9746  5.16  9.90         3         3   1732.3485   1403.7018     0.568     0.337  42.55     1145.151
       514     106.4165  -5.0675  6.64  5.28         8         8    864.9205    882.1395     0.829     0.661  42.24     1145.443
       515     1040.542  -7.5431  9.48 10.56        35       100   1559.1763    875.4202     4.065     1.972  20.68     1154.616
       516     34.08398  -3.8314  6.21  9.90         2         3   1019.3251   1434.6722     0.571     0.337  45.12     1145.288
       517     53.70264  -4.3250  4.33  7.26         4         5    932.7847    737.9803     0.796     0.497 -35.54     1146.048
       518     85.10242  -4.8249  6.96  9.90         5         9   1607.8774   1446.8405     0.987     0.704  78.25     1144.968
       519     229.3926  -5.9014  3.50  5.28        17        18   1771.0416   1427.1981     1.688     0.797 -33.50     1145.181
       520     191.3291  -5.7045  6.82  8.58        12        16    145.2862    916.5259     1.595     0.782 -26.68     1145.481
       521      340.959  -6.3318  4.83  7.92        21        26   1657.0920   1399.5254     1.863     1.109  53.67     1145.385
       522     3680.801  -8.9149  3.50  5.28        70        82    758.3930    944.4438     1.837     1.774   8.93     1145.204
       523     59.96057  -4.4447  5.88  8.58         5         5   1624.4119   1409.9979     0.899     0.492 -88.57     1145.386
       524     49.96265  -4.2466  5.29  6.60         3         3   1290.2803   1411.6414     0.563     0.338  49.01      1144.84
       525     48.03418  -4.2039  7.32  8.58         4         4   1071.4762    880.5184     0.503     0.496  46.03     1146.489
       526     476.8701  -6.6960  8.61 10.56        14        44   1402.8534   1406.1156     2.440     1.226  62.98     1145.074
       527      39930.7 -11.5033  3.50  3.96       217       245   1244.0138    873.4487     2.185     2.103 -56.37     1148.013
       528     289.1892  -6.1530  5.25  5.28        19        24   1352.3763   1391.7319     1.556     1.103  -4.32      1144.89
       529     25.95508  -3.5356  6.84  9.24         2         3   1807.9999    926.0000     0.848     0.289   0.00     1147.728
       530       102.77  -5.0297  5.67  4.62         7         7    924.7580   1404.5830     0.990     0.479  -7.74     1145.447
       531     60.98987  -4.4631  7.15  7.92         4         6   1290.1980   1354.8152     0.751     0.564 -45.72     1144.826
       532     84.67896  -4.8194  3.50  5.94         5         5   1553.1766   1412.3774     0.743     0.447  18.47      1145.36
       533     164.1655  -5.5382  5.89  5.28        11        15   1303.4041   1386.6483     1.350     0.844 -20.45     1144.839
       534     787.3861  -7.2405  9.07 10.56        26        76   1554.6437    865.7963     1.889     1.568  26.33      1155.01
       535     329.3229  -6.2941  4.04  7.26        19        24   1208.9546    738.4702     1.532     1.064  51.22     1148.098
       536     211.9891  -5.8158  4.73  6.60        13        15    298.7182   1358.3871     1.071     0.938  53.90     1145.528
       537     8429.019  -9.8144  3.50  4.62        95       108    514.6827   1387.4149     1.907     1.815 -50.02     1145.509
       538     1623.445  -8.0261  3.50  4.62        41        51   1334.7074    727.8026     1.626     1.508   6.83     1154.828
       539     75.40417  -4.6935  5.27  5.94         5         5    627.5750   1406.8014     0.731     0.453  69.73     1145.516
       540     33.25671  -3.8047  8.34  9.90         2         3   1527.3097    923.3448     0.572     0.336 -46.63     1152.595
       541     134.0109  -5.3179  3.50  7.92         9        13    353.1573   1406.7964     1.241     0.849  87.94     1145.517
       542     50.45447  -4.2572  5.79  7.92         3         5    774.5988    867.7994     0.744     0.450  70.78     1145.183
       543     296.8883  -6.1815  5.52  7.92        17        23     65.8634   1442.7561     1.305     1.122  10.26     1145.142
       544     156.6283  -5.4872  4.81  7.92         6        12     71.8023    714.2997     1.354     0.527  29.94     1145.447
       545     7981.355  -9.7552  3.50  4.62        97       106   1356.1606   1350.9930     1.857     1.820 -67.78     1144.947
       546      43.6731  -4.1005  3.50  8.58         3         3   1614.2980   1381.6678     0.561     0.341  46.83     1145.736
       547     170.3005  -5.5780  5.91  8.58         8        13   1112.6533   1195.3490     0.975     0.854 -44.88     1145.224
       548     45.64197  -4.1484  4.36  6.60         3         3    920.6659   1385.2843     0.555     0.343  42.14     1145.437
       549     37.59009  -3.9377  5.81 10.56         3         3   1546.6456   1388.3126     0.577     0.333  43.20     1145.643
       550     678.8457  -7.0794  6.68 10.56        43        54   1250.6031   1388.9595     3.035     1.359 -36.15      1144.82
       551     83.39233  -4.8028  8.29  8.58         5         7   1256.6345   1378.6801     0.950     0.522  81.68     1144.819
       552     1906.417  -8.2005  3.50  5.28        48        54   1955.4297   1365.3141     1.616     1.497 -13.93     1145.246
       553     60.34668  -4.4516  6.99  9.90         6         6   1973.8236   1367.0145     0.930     0.471  52.00     1145.265
       554     58.52783  -4.4184  8.11  9.90         4         5    918.6218   1439.7955     0.767     0.443  71.62     1145.469
       555     533.9216  -6.8187  4.87  6.60        30        36    442.0950    920.8528     2.131     1.120  -8.90     1145.216
       556     363.6071  -6.4016  3.58  5.94        19        20    410.3670   1366.0698     1.252     1.013 -50.45     1145.517
       557     137.1154  -5.3427  6.84 10.56         6        12   1257.3417   1375.6921     0.816     0.759  34.11     1144.817
       558     660.0936  -7.0490  3.71  7.26        34        41   1464.9559   1370.6753     1.624     1.576 -12.98      1145.66
       559     43.79175  -4.1035  8.65  7.26         3         3    218.6767    727.6657     0.573     0.336 -45.50     1145.403
       560     54.47949  -4.3406  8.67 10.56         4         5    186.7909   1368.5726     0.755     0.452  19.52     1145.465
       561     100.5487  -5.0059  7.24  4.62         7        10   1548.2015    920.9497     0.944     0.750   0.94     1152.625
       562     40.96448  -4.0310  4.86  6.60         2         3   1499.0000   1359.9935     0.835     0.289  90.00     1145.884
       563     1310.347  -7.7935  4.14  6.60        58        67    555.1177    713.8975     2.161     1.784  33.99     1145.048
       564      58.3241  -4.4146  8.49  6.60         4         5   1840.2683   1364.6169     0.742     0.453 -17.48      1145.17
       565     63.10583  -4.5002  3.50  6.60         4         6   1653.3315   1363.8513     0.739     0.634  25.26     1145.676
       566     819.8362  -7.2843  3.93  5.28        29        33    892.2291   1343.4725     1.410     1.324 -60.24     1145.437
       567     40.99207  -4.0317  8.90  5.28         3         3   1972.3058    717.3226     0.560     0.342 -45.91     1146.805
       568     29.90137  -3.6892  8.04  7.26         2         3   1513.3185    927.6616     0.573     0.336  45.91     1152.425
       569       104.11  -5.0437  7.26 10.56         5        10   1072.6427   1341.2185     1.403     0.603  18.44     1145.092
       570     63.12671  -4.5005  3.50  7.92         4         4   1552.5829   1338.5073     0.500     0.493  79.32      1146.22
       571     42.00232  -4.0582  7.79  9.90         4         4   1875.5216    720.5079     0.505     0.494 -46.00     1148.777
       572     470.0897  -6.6805  4.23  5.94        30        36     87.1604   1427.2228     1.659     1.471  23.62     1145.216
       573     115.1987  -5.1536  7.08  7.26         8         9    408.8875    868.8874     0.950     0.696  71.72     1145.219
       574      2319.64  -8.4136  4.22  5.28        54        63   1200.7053   1344.2240     1.702     1.640 -48.18      1144.82
       575     82.52661  -4.7915  6.22  6.60         5         7    386.9015    869.1198     1.162     0.509 -36.85     1145.231
       576     61.40942  -4.4706  8.36  7.26         4         5   1985.6151    717.1942     0.773     0.443 -71.49     1146.509
       577     29.61902  -3.6789  9.31 10.56         2         3   1128.3296   1020.3326     0.575     0.334 -45.14     1146.159
       578     320.4547  -6.2644  8.13  4.62        11        27   1548.2375    948.4327     1.573     0.495   2.31     1151.454
       579      45.5188  -4.1455  8.57  7.92         5         5    356.1852    945.7762     1.004     0.348  44.70     1145.301
       580     84.02808  -4.8111  5.63  8.58         7         8    944.6761   1140.3202     1.054     0.663 -33.54     1145.327
       581     5401.335  -9.3313  4.92  6.60       152       179   1255.0642   1327.3389     2.903     2.684 -38.24     1144.909
       582     170.9893  -5.5824  3.50  5.28         8        12   1552.8076   1321.1792     1.013     0.588 -19.21     1146.358
       583     17539.55 -10.6100  3.50  5.94       593       667    962.8776    937.5384     7.033     4.833 -41.37     1146.123
       584     138.7809  -5.3558  7.12  6.60        10        11   1207.7710   1298.6345     1.290     0.625  57.20     1144.994
       585     36.51953  -3.9063  7.41 10.56         3         3   1512.6744   1327.6562     0.578     0.333 -45.77     1146.225
       586     479.6858  -6.7024  3.82  5.94        26        30   1015.0513   1332.6624     1.578     1.207  85.34     1145.241
       587     280.7623  -6.1208  5.46  7.26        20        22    419.2105    951.6373     1.324     1.231  34.09     1145.246
       588     165.9255  -5.5498  8.36 10.56        11        14   1547.3146    955.5319     1.675     0.770 -15.76     1151.112
       589     51.28613  -4.2750  6.19  8.58         3         4   1993.4865   1322.4849     0.505     0.494 -44.87     1145.232
       590     2030.306  -8.2689  3.50  5.28        50        56    457.5404   1315.6501     1.692     1.515 -58.37      1145.51
       591     280.1947  -6.1186  5.25  7.92        19        26    937.2265   1320.4767     1.846     1.169  13.33     1145.393
       592     1090.477  -7.5940  4.60  5.28        36        43   1137.3926   1311.5023     1.610     1.352  87.70     1145.006
       593      26.4917  -3.5578  6.80  8.58         2         3   1527.0000    955.9789     0.864     0.289  90.00       1151.2
       594     210.8827  -5.8101  8.35  3.50         8        19   1452.6060    957.8066     1.046     0.850  84.95     1150.794
       595     814.1947  -7.2768  4.80  7.26        42        50   1741.2058   1304.6794     2.136     1.381  34.73     1145.473
       596     1606.104  -8.0144  4.89  5.94        60        71    448.4516    950.5549     2.137     1.787  -8.05     1145.218
       597     451.8151  -6.6374  4.19  5.94        20        25   1240.4724    956.8417     1.285     1.192  43.14     1147.267
       598     193.4718  -5.7165  3.50  5.94        12        14   1821.9851   1296.3412     0.993     0.975 -77.46      1145.29
       599     22.81287  -3.3954  9.30 10.56         2         3   1547.9879    963.0000     0.849     0.289   0.00     1150.837
       600     841.9894  -7.3133  7.57 10.56        51        57   1565.2660    955.1642     2.581     1.597 -85.99     1151.077
       601     168.0752  -5.5638  8.02 10.56        11        16   1453.4354    950.0472     1.719     0.841  60.86     1151.096
       602     1299.392  -7.7844  4.27  5.28        38        45   1249.5048   1302.2035     1.556     1.450 -75.57     1145.043
       603     558.6815  -6.8679  5.61  7.92        34        44   1313.1317   1303.6591     2.879     1.304  19.37     1145.156
       604     233.1963  -5.9193  5.54  5.94        16        19    362.5176   1293.3329     1.863     0.846 -21.76      1145.52
       605     104.3224  -5.0459  6.07  7.26         8        10   1997.1260    960.6933     0.943     0.870 -28.91     1146.027
       606     172.1228  -5.5896  5.47  9.24        10        16   1341.2687    992.0918     1.416     0.841  67.11     1147.517
       607     62.93909  -4.4973  6.70  9.24         5         6    445.8181   1279.9875     0.942     0.466 -53.57     1145.508
       608     258.7003  -6.0320  6.51  4.62        17        20   1181.8767   1282.7378     1.290     1.102  61.65     1145.058
       609     83.39197  -4.8028  4.60  7.26         4         7   1185.4373   1290.2878     0.977     0.475 -80.39     1145.035
       610     119.1229  -5.1900  5.63  6.60         8        12   1808.1769   1284.5563     1.284     0.669 -89.35     1145.376
       611     633.7709  -7.0048  4.53  5.94        30        40   1476.6515   1288.2488     1.555     1.354 -62.52      1146.51
       612       165.24  -5.5453  3.50  5.28        13        15    172.5733   1278.3899     1.440     0.788  55.47     1145.588
       613     31.85522  -3.7580  5.66  9.90         3         3      3.3239   1258.6555     0.578     0.333  45.88     1145.678
       614     37.47681  -3.9344  8.97 10.56         3         3    384.6554   1258.2964     0.565     0.339  42.58     1145.513
       615     73.41064  -4.6644  4.53  7.92         3         6    852.7189   1276.3268     0.551     0.345  47.79     1145.401
       616     713034.2 -14.6328  3.50  3.50       919      1021    864.5815   1223.2469     2.663     2.485 -45.90     1145.349
       617     670.1132  -7.0654  4.34  6.60        37        43   1054.8303   1277.4767     1.696     1.595 -58.43     1145.135
       618     137.0454  -5.3422  4.93  7.92         9        12   1401.9088   1276.3380     1.346     0.712  21.41     1145.978
       619     40.04456  -4.0064  4.73  7.26         3         3   1142.3082   1256.3060     0.554     0.344 -44.87     1145.105
       620     167.2776  -5.5586  4.03  4.62        10        13    305.3714    966.4431     0.990     0.871  45.93     1145.362
       621      386.092  -6.4667  4.21  6.60        21        31   1619.0769   1274.5481     1.689     1.343 -52.84     1146.623
       622     90.24451  -4.8886  7.86  6.60         6         7   1565.7566    964.5963     0.978     0.476  -7.92     1150.702
       623     137.8257  -5.3483  7.49  7.26        10        10   1341.7252   1265.7357     1.212     1.016 -62.77     1145.547
       624     822.9722  -7.2885  3.50  5.94        43        51    369.6910   1265.6184     1.896     1.530  10.15     1145.515
       625     40.26611  -4.0123  6.22 10.56         3         4   1714.7323   1258.0045     0.677     0.443  89.73     1146.025
       626     1464.629  -7.9143  4.82  5.94        58        63   1220.9784   1256.3604     2.032     1.676 -35.53     1145.197
       627     598.6721  -6.9430  5.06  5.94        36        40    572.2844   1249.0812     2.142     1.236 -42.64      1145.48
       628     880.0891  -7.3613  4.89  6.60        46        53   1818.8855   1244.8481     1.994     1.622 -86.59     1145.455
       629      50.0199  -4.2479  6.88  7.26         3         3   1161.6884    967.6794     0.562     0.341 -45.47     1146.672
       630     1808.882  -8.1435  3.50  6.60        71        80    752.5879   1240.4180     2.502     1.741 -36.79     1145.439
       631      655.078  -7.0407  4.45  5.94        30        35    812.8585   1240.3606     1.466     1.346 -23.64     1145.384
       632     570.4512  -6.8905  3.50  5.28        27        28    409.2481    968.9895     1.325     1.282   1.16      1145.27
       633     545.9222  -6.8428  6.07  9.24        34        41   1115.5566   1235.6788     1.848     1.599 -27.19     1145.097
       634     54.58081  -4.3426  7.87 10.56         3         4   1595.5299    970.5171     0.504     0.494  46.75     1150.415
       635      91318.5 -12.4014  3.50  3.96       297       325    549.6926   1240.8993     2.264     2.146 -50.74     1145.482
       636     56.44336  -4.3790  6.78  9.90         5         5   1553.7775    981.4203     0.732     0.457 -19.05     1150.329
       637     50.07019  -4.2489  3.50  7.92         4         4   1161.4991   1192.9775     0.800     0.312  57.97     1145.346
       638     46.30859  -4.1642  3.91  4.62         2         3   1978.0000   1212.9955     0.817     0.289  90.00     1145.256
       639      27.4165  -3.5950  7.13  9.24         2         3   1516.6963    978.3407     0.567     0.338  46.82     1150.559
       640     40.54944  -4.0200  5.84  9.24         3         3   1604.3025    980.0560     0.908     0.211 -62.49     1150.103
       641     34.75769  -3.8526  8.46 10.56         3         4    248.0021   1230.4918     0.803     0.311 -31.90     1145.555
       642      75.8584  -4.7000  7.64  7.26         5         6     36.4768   1232.9622     0.766     0.499 -89.21     1145.674
       643     39.91272  -4.0028  6.43  9.90         4         4   1547.7462    976.7698     0.846     0.350  17.69      1150.46
       644     96.53601  -4.9617  6.50  7.92         8         9   1428.5719   1232.8483     1.105     0.577  26.37     1146.604
       645     69.18567  -4.6000  6.81  6.60         4         7    583.0010    977.3133     0.746     0.685  12.05     1145.131
       646     565.4026  -6.8809  3.63  4.62        22        29   1795.4829   1215.3802     1.298     1.271 -67.71     1145.755
       647     25929.08 -11.0345  3.50  4.62       173       187   1664.5173   1234.2678     2.079     1.979 -49.52     1146.588
       648     51.47021  -4.2789  5.13  6.60         4         5    374.6319   1219.1963     0.767     0.442 -72.07     1145.509
       649     172.0155  -5.5889  5.42  9.24        12        15    641.2093   1211.8746     1.633     0.695 -82.96     1145.454
       650     2208.931  -8.3605  3.50  6.60       108       127   1038.3909    966.7725     4.445     1.754  19.54     1146.112
       651     202.0304  -5.7635  4.37  6.60        13        18   1595.2637   1247.5568     1.665     1.010  51.17     1146.944
       652     150.4534  -5.4435  6.75  5.28        11        11   1845.1545   1207.6962     1.125     0.702 -89.88     1145.401
       653     1086.365  -7.5899  3.50  5.94        45        54    255.6507    970.0531     2.012     1.555 -67.54     1145.402
       654     119.5959  -5.1943  3.50  5.28         5         6   1746.4935    980.8678     0.761     0.498  85.34     1147.386
       655     343.1411  -6.3387  3.50  5.28        18        21   1779.9419   1197.3811     1.238     1.067  84.52     1146.028
       656     162.9745  -5.5303  4.86  8.58        10        14   1024.4021    988.5641     1.147     0.887  63.01     1146.002
       657     129.1138  -5.2774  4.93  8.58         9        10   1639.4691   1209.9534     1.351     0.499  89.95     1146.928
       658      24.5769  -3.4763  7.03  9.24         2         3   1424.6202   1214.3003     0.581     0.329  41.82     1146.726
       659     81.73804  -4.7811  6.51  6.60         6         6    489.8320   1001.1931     0.734     0.566 -44.36     1145.236
       660     134.2715  -5.3200  6.38  5.28         8        11   1383.3433   1200.6124     1.280     0.769 -53.52     1146.447
       661      246.527  -5.9797  5.06  5.94        15        18    978.6413    992.1432     1.269     0.977   4.20     1145.944
       662     96.67957  -4.9633  6.66  7.26         7         8   1554.5160    986.5046     1.069     0.500  -0.73     1150.165
       663     417.4923  -6.5516  4.81  6.60        24        27   1314.5156    981.5503     1.547     1.090  46.12     1147.432
       664     595.5342  -6.9373  6.13  7.92        37        40   1437.4948   1186.9232     1.801     1.455  69.62     1146.949
       665     48.86584  -4.2225  8.11  7.92         3         5   1691.3800    987.2088     0.767     0.450  72.91     1148.179
       666     100.0096  -5.0001  6.37  8.58         9        10   1824.7329   1200.9052     1.101     0.757 -78.06     1145.624
       667     148.8057  -5.4315  5.78  7.92        13        13   1497.3237   1182.7441     1.037     0.943  59.25     1147.229
       668     247.5109  -5.9840  5.90  4.62        13        19    504.0979   1114.7211     1.594     0.749 -53.22     1145.341
       669     87.15479  -4.8507  7.42  5.28         6         7    742.2422   1006.0143     0.715     0.691  70.62     1145.181
       670     93.18262  -4.9233  5.81  7.92         6         8   1484.0874   1000.1861     0.841     0.675 -44.57     1150.054
       671     196.8132  -5.7351  4.67  5.28        13        14   1350.1195   1004.4019     1.110     0.881 -12.29     1147.586
       672     65.44629  -4.5397  6.21  8.58         4         6    856.4268   1005.2153     1.254     0.352  28.90     1145.294
       673     209.0469  -5.8006  6.34  5.28        14        16   1157.5298    988.9355     1.505     0.921  79.87     1146.509
       674       1293.8  -7.7797  4.18  5.94        58        62   1143.9183    989.3667     1.913     1.794 -60.69     1146.418
       675     56.86694  -4.3871  3.50  5.28         3         4    451.9768   1005.2976     1.033     0.301 -50.50     1145.289
       676      114.913  -5.1509  7.15  7.26         5        11   1582.5262    992.9840     0.800     0.499 -89.97     1149.905
       677     745.2029  -7.1807  7.09  7.92        50        66   1656.1831   1001.3000     2.747     2.194  68.50     1148.679
       678     48.43567  -4.2129  5.60  5.28         3         3    529.3388   1055.6830     0.573     0.336  44.00     1145.225
       679     266.4009  -6.0638  3.50  6.60        15        20     66.1904   1012.9811     1.272     1.105  68.18     1145.617
       680     156.0767  -5.4833  5.72  6.60        13        14    450.5341   1181.3268     1.046     0.980 -10.14      1145.48
       681      120.505  -5.2025  6.87  6.60         6        11   1553.8649   1010.1374     1.003     0.596  76.22     1149.554
       682     7919.773  -9.7468  3.50  4.62        94       107    532.3568    998.4502     1.932     1.820 -42.03     1145.183
       683      916.231  -7.4050  4.18  5.94        33        38   2015.5905   1182.6754     1.515     1.329 -68.30     1145.461
       684     71.55957  -4.6367  6.79  5.94         5         5   1548.1964   1046.6022     0.732     0.456 -18.15     1148.577
       685     35065.96 -11.3622  3.50  5.28       657       717   1876.0342   1115.9209     8.281     3.388 -31.51     1146.044
       686     2045.075  -8.2768  3.55  5.28        62        67    656.3581   1168.8390     1.888     1.666 -48.98     1145.343
       687     451.5676  -6.6368  3.50  5.28        28        31   1951.0568   1113.7335     1.673     1.214 -31.47     1145.992
       688     108.2125  -5.0857  5.87  6.60         9         9   1019.0431   1115.2697     1.011     0.660  27.85     1145.457
       689     1714.825  -8.0855  3.80  5.28        59        67    918.0324   1135.8333     1.957     1.764  76.95     1145.292
       690     85.78601  -4.8335  6.69  7.26         5         9    477.2644   1010.6889     1.175     0.563 -43.67     1145.265
       691     60.58154  -4.4559  7.30 10.56         5         6   1804.1750   1025.2980     0.757     0.650 -69.37     1147.051
       692     298.4255  -6.1871  5.85  5.94        16        24   1123.3256   1138.3253     1.883     1.086  -8.69     1145.546
       693     151.7736  -5.4530  3.50  7.26        11        13   1190.2249   1053.0643     1.125     0.896  -0.32     1146.218
       694     1031.347  -7.5335  5.06  9.90        61        89   1936.6324   1133.1376     2.675     2.274 -33.81     1145.861
       695     66.24988  -4.5530  6.48  6.60         4         5   1173.0594   1022.8034     0.782     0.499  53.00     1146.367
       696     331.7863  -6.3021  5.08  5.94        25        30   1342.7786   1106.0812     2.221     1.368  59.19     1146.972
       697     101.9324  -5.0208  3.50  5.94         7         9   1525.6139   1162.1084     1.114     0.581 -26.10      1147.28
       698     685.7251  -7.0904  3.70  5.94        44        52   1338.8650   1162.9814     1.989     1.834  74.07     1146.437
       699     73.06873  -4.6593  6.91  4.62         5         7   1670.6841   1135.6063     0.931     0.635 -69.50     1147.125
       700     299.8977  -6.1924  4.31  7.26        21        23    643.4338   1158.4285     1.509     1.056 -77.25     1145.314
       701     97.39563  -4.9713  6.09  7.26         7        11    714.3246   1167.2701     1.292     0.938 -30.87     1145.331
       702     2822.536  -8.6266  3.65  4.62        57        61   1996.7870   1125.5806     1.651     1.579 -27.92     1145.866
       703     28561.19 -11.1394  3.50  3.96       186       200    666.2117   1159.5193     2.172     2.018 -69.75     1145.319
       704     486.8314  -6.7184  4.96  5.28        27        32    751.2802   1129.6736     1.690     1.286  77.34     1145.218
       705      166.525  -5.5537  4.61  6.60        11        14   1214.4519   1153.3958     1.313     0.776 -42.13     1145.668
       706     619.9839  -6.9810  4.97  7.26        30        35    760.0214   1156.9744     1.574     1.388 -61.62     1145.275
       707     211.2594  -5.8120  4.92  9.90        12        13    955.5875   1102.1682     1.006     0.852  19.13     1145.332
       708      46.0166  -4.1573  7.33  7.26         4         4    382.2491   1138.0311     0.683     0.432 -88.41     1145.465
       709     46.37048  -4.1656  4.72  7.26         3         3   1531.6718   1151.3256     0.572     0.336  44.88     1147.305
       710     103.7811  -5.0403  7.98  5.94         4         9    538.1882   1153.8427     0.767     0.566 -45.89     1145.354
       711     47.15393  -4.1838  7.49  7.92         3         4   1553.5507   1149.5156     0.501     0.496  57.74     1147.306
       712     1173.765  -7.6740  4.87  7.92        50        65    703.7930   1144.4994     2.130     1.838  -4.19     1145.278
       713     95.56653  -4.9508  4.03  3.96         6         7   1554.0146   1138.3135     0.737     0.664   1.79     1147.333
       714     732.6038  -7.1622  3.50  5.28        35        38    115.8125   1145.8140     1.595     1.359  84.34     1145.615
       715     1673.328  -8.0590  3.84  5.28        44        50   1844.3660   1131.0074     1.598     1.461  77.91     1146.044
       716     321.5522  -6.2681  4.69  5.94        15        20   1261.5144   1137.8926     1.206     1.075  78.22     1146.084
       717     64.62744  -4.5260  7.01  8.58         5         6    870.1847   1163.0424     0.931     0.475  54.90      1145.27
       718     533.0212  -6.8169  5.44  6.60        34        45   2006.6901   1137.5668     2.331     1.628 -84.72     1145.775
       719       64.802  -4.5290  7.88  9.24         4         6   1539.5060   1018.0675     0.791     0.500  89.18     1149.379
       720     78.72571  -4.7403  5.69  7.26         4         7    749.5135   1124.5199     0.940     0.542 -58.81     1145.207
       721     53.02148  -4.3111  6.20  8.58         4         4   1562.4918   1117.4883     0.514     0.485 -44.93      1147.38
       722     125.6055  -5.2475  8.28 10.56         6        11   1539.0055   1124.4802     0.797     0.500   0.43     1147.368
       723     228.1653  -5.8956  5.53  7.26        14        17   1355.5170   1107.8406     1.123     1.071 -32.86      1147.01
       724      124.139  -5.2348  3.50  5.28         9        10    491.3344   1122.8071     1.086     0.683 -16.71     1145.376
       725     47.49817  -4.1917  8.64  7.92         4         4   1031.4882   1075.4756     0.505     0.494 -43.77     1145.619
       726     453.7991  -6.6422  5.24  7.92        23        28   1078.7770   1100.0828     1.461     1.208  -0.46      1145.65
       727     1113.461  -7.6167  3.50  4.62        35        40   2035.5804   1115.5533     1.512     1.361 -76.04     1145.902
       728     60.16443  -4.4483  7.36  5.94         5         6    495.8576   1079.3485     0.755     0.644  63.89     1145.312
       729     194.2664  -5.7210  3.50  7.92        13        16     15.3240   1101.3047     1.554     0.773 -40.16     1145.724
       730     38.09558  -3.9522  8.65  5.28         2         3   1607.0536   1049.3097     0.917     0.209 -27.52     1148.386
       731     113.6304  -5.1387  5.80  4.62         8         9   1548.1451   1079.0818     0.946     0.697  78.91     1147.716
       732     47.38879  -4.1892  7.84  7.92         3         4   1495.9747   1077.4701     0.776     0.320  32.78     1147.805
       733      6931.38  -9.6020  3.52  4.62        96       106   1484.9437   1092.8143     1.870     1.850 -81.06     1147.453
       734      1592.83  -8.0054  3.50  6.60        73        85   1298.1979   1097.4122     2.926     1.635  16.69      1146.66
       735     1779.467  -8.1257  3.50  5.28        69        78    980.6596   1095.5249     2.318     1.953 -17.85     1145.396
       736     51.21692  -4.2735  6.97  9.24         4         4   1553.5345   1049.5366     0.499     0.499 -20.25     1148.486
       737     57.15588  -4.3927  3.50  9.24         4         4    261.5495   1090.5294     0.502     0.494 -50.94     1145.474
       738     86.99133  -4.8487  6.06  6.60         5         8    638.1490   1096.1400     0.835     0.650 -41.14     1145.154
       739     380.3462  -6.4504  3.50  5.28        22        25    747.7983   1081.2258     1.360     1.185 -78.93     1145.129
       740     417.0428  -6.5505  4.48  5.94        24        29    457.5132   1088.2219     1.588     1.186 -45.86     1145.409
       741     228.2797  -5.8962  6.64  3.50        13        21   1683.0582   1092.2971     1.486     0.869 -24.79     1147.356
       742       43.745  -4.1023  7.98  8.58         1         5   1620.0179   1090.0049     0.620     0.604  -0.26     1147.416
       743     1279.499  -7.7676  3.50  6.60        56        65   1752.2736   1080.3037     2.497     1.616 -44.76      1147.17
       744     177.1549  -5.6209  7.86 10.56        12        14   1531.3314   1057.3607     1.598     0.727  78.59     1148.331
       745     109.9991  -5.1035  5.19  6.60         8         8   1924.1838   1070.5763     0.935     0.629 -14.49     1146.279
       746     37.69202  -3.9406  8.95 10.56         3         4    804.0150   1065.7355     0.690     0.441   0.81     1145.126
       747     840.1285  -7.3109  3.66  5.94        37        43    334.1631   1071.8060     1.641     1.543  20.81      1145.43
       748     107.5809  -5.0793  5.88  7.26         6         9    188.9931   1063.5361     1.204     0.615 -78.13     1145.497
       749     64.72803  -4.5277  7.47  5.94         3         4   1523.9934   1057.5192     0.790     0.315  32.34     1148.313
       750     80.45386  -4.7639  5.85  4.62         4         5   1586.8893   1068.6310     0.750     0.434  20.17     1147.947
       751     197.3003  -5.7378  4.29  5.28        12        13    106.2314   1059.5990     1.015     0.877  15.00     1145.596
       752     56.25269  -4.3754  7.99  8.58         4         5   1420.2159   1063.4241     0.736     0.456  19.19     1147.825
       753     12539.71 -10.2457  3.50  4.62       142       160   1090.6152   1043.5931     2.224     2.027  46.84      1145.89
       754     32.81763  -3.7903  8.56 10.56         2         3   1168.3307   1055.6534     0.582     0.331  45.64     1146.118
       755     920.2131  -7.4097  3.60  5.94        43        47   1274.9708   1052.0396     1.740     1.560 -17.14     1146.763
       756     1073.837  -7.5773  3.50  5.28        43        47   1277.5044   1044.5116     1.655     1.549 -89.02     1146.833
       757     643.7734  -7.0218  4.28  5.94        27        30   1011.7786   1045.5619     1.386     1.263 -58.53     1145.709
       758     503.3875  -6.7548  8.87 10.56        11        47   1431.9976   1027.9631     1.507     0.871 -81.59     1148.665
       759     29.39099  -3.6705  7.31  9.90         3         3   1521.6743   1040.3351     0.575     0.335  45.42     1148.816
       760     1040.106  -7.5427  3.50  5.94        38        46    163.2168   1023.4824     1.742     1.463 -62.66     1145.509
       761     43.72717  -4.1019  6.64  8.58         3         4   1060.5201   1045.5038     0.509     0.490 -45.60     1145.815
       762      29.9801  -3.6921  9.34 10.56         2         3   1586.6869   1036.9570     0.916     0.210 -62.35     1148.766
       763     97.05286  -4.9675  8.64 10.56         7        10   1651.2128   1025.4141     1.030     0.729 -87.58     1148.393
       764     37.12305  -3.9241  7.89  8.58         3         4   1576.2512   1017.0059     0.691     0.434 -89.71     1149.307
       765     166.3533  -5.5526  3.50  5.94        11        18    261.3363   1024.9457     1.842     0.817 -65.16     1145.433
       766     28.01086  -3.6183  7.76  9.90         3         3   1553.6709   1032.3334     0.576     0.334  45.19     1148.967
       767     5791.375  -9.4070  3.50  4.62        82        92    830.7853   1012.1811     1.852     1.772 -71.63     1145.167
       768     95.68176  -4.9521  6.21  5.94         8         8   1628.2368   1015.5850     1.213     0.534 -45.59     1148.869
       769     458.1526  -6.6525  3.97  5.94        24        31    805.7834   1014.5618     1.524     1.308  37.77     1145.167
       770     58.61401  -4.4200  6.18  7.26         4         5    178.1883   1015.0154     0.807     0.503 -34.90     1145.488
       771     6967.272  -9.6077  3.50  3.96        65        73   1375.9714    530.8612     1.454     1.359 -54.74      1110.34
       772     1576.119  -7.9940  3.50  6.60        95       105   1649.4646    527.9047     2.647     2.496  71.74     1110.196
       773      41.1709  -4.0365  7.65 10.56         2         3    915.9413    532.0000     0.856     0.289   0.00     1110.281
       774     279.4285  -6.1157  4.12  5.94        11        17    824.1640    530.0590     1.053     0.831 -57.85     1110.171
       775     2166.628  -8.3395  3.50  3.96        36        41    589.0993   1380.2759     1.301     1.200 -66.78     1109.813
       776     432.6555  -6.5904  5.06  4.62        16        21   1730.7271    526.4937     1.130     1.050  42.70     1110.167
       777     1825.918  -8.1537  3.50  5.94        93       102   1720.2491    521.3731     2.739     2.192 -16.29     1110.171
       778     369.8932  -6.4202  3.50  5.28        11        19    290.4614    523.9520     0.999     0.896 -86.55     1110.235
       779     53.45056  -4.3199  4.26  6.60         4         5   1498.2189    523.3721     0.756     0.448  17.36     1110.302
       780     12427.32 -10.2359  3.50  3.96        88        95   1297.6671    517.1194     1.521     1.437 -76.39     1110.368
       781     101.4429  -5.0156  5.14  5.94         6         8    856.8303    520.9158     0.801     0.653 -48.65     1110.213
       782     128.7618  -5.2745  6.51  4.62         7        10    804.7944   1481.9462     0.891     0.754  -0.49     1108.335
       783     344.5829  -6.3432  7.21 10.56        17        33   1970.4431    516.5642     1.779     1.217  49.24     1109.831
       784     92.41504  -4.9144  3.50  4.62         6         7    262.6176    516.7064     0.945     0.474 -82.40     1110.241
       785     26.45129  -3.5561  3.50  7.26         1         3    833.2926    516.3154     0.551     0.345 -46.39      1110.19
       786     176.7743  -5.6185  3.50  4.62        11        14   1706.6853    510.7314     1.077     0.854 -57.51     1110.175
       787      101.566  -5.0169  6.04  6.60         6         9   1708.9893    506.7405     0.929     0.672 -68.97     1110.175
       788      92.5188  -4.9156  4.76  4.62         7         9   1672.0317    511.0084     0.794     0.772 -16.49     1110.188
       789     98.46997  -4.9833  4.41  5.28         6         9    354.6454    523.7424     0.864     0.724   6.10     1110.284
       790     29.13367  -3.6610  4.97  7.26         3         3    691.6770    510.6657     0.573     0.336 -45.51     1110.282
       791     81.68152  -4.7803  3.50  5.94         5         6    489.4920    509.0341     0.768     0.499 -86.64     1110.365
       792     102.6238  -5.0281  3.50  6.60         7         9   1858.9684    530.0128     0.788     0.777 -64.90     1110.146
       793     131.9484  -5.3010  3.97  6.60         9         9   1133.3733    504.2909     0.994     0.629  87.12     1110.428
       794     42.09717  -4.0606  7.64  9.90         3         6   1482.5076    503.9685     0.810     0.500  89.86     1110.307
       795     3012.192  -8.6972  3.50  3.96        45        48   1461.3502    500.8179     1.362     1.267 -67.07     1110.317
       796     227.8314  -5.8940  3.50  3.96        13        15     13.4549    502.6627     1.042     0.908 -81.09     1110.121
       797     117.7838  -5.1777  3.50  4.62         7         8    452.8160    502.1203     0.805     0.669  48.06     1110.387
       798     3086.818  -8.7238  3.50  3.96        44        53   1060.8501    498.0754     1.393     1.308  -6.76     1110.426
       799     144.3477  -5.3985  3.50  6.60        10        13    530.9355    497.5234     1.120     0.839 -65.27     1110.347
       800     218.8196  -5.8502  3.50  5.28        10        12    125.0925    505.6032     0.954     0.752  84.48      1110.19
       801     918.8644  -7.4081  3.50  4.62        28        31   1152.4728   1471.6005     1.318     1.115  84.53     1110.454
       802     33.49829  -3.8126  7.26  9.90         3         3   1675.6666    493.6580     0.581     0.331 -45.35     1110.186
       803      378.566  -6.4454  6.44  5.94        21        24    757.8209   1477.9861     1.707     0.934  42.85     1108.359
       804     44.77698  -4.1276  5.76  7.26         3         3    439.2769    493.6602     0.554     0.343  48.65     1110.389
       805      174.141  -5.6023  3.50  5.28        12        12    775.0899    494.6645     0.972     0.789  55.98     1110.255
       806     274.7877  -6.0975  3.50  5.28        12        16   1032.4640    490.0234     1.034     0.886 -82.45     1110.415
       807     27.84436  -3.6118  8.43  7.26         3         3    495.6697    490.6787     0.571     0.337 -44.58     1110.368
       808     114.0609  -5.1428  4.47  4.62         8        10    379.4850    489.3541     0.945     0.741 -89.35     1110.372
       809     129.0062  -5.2765  3.92  5.28         9         9    566.3260    487.1540     0.880     0.685 -22.78     1110.329
       810      166.816  -5.5556  4.30  5.28        11        13    167.9550    493.1973     0.963     0.947   9.16     1110.238
       811     65.27991  -4.5369  3.98  7.92         5         6   1508.6428    484.1969     0.736     0.659  29.49     1110.281
       812     50.89062  -4.2666  4.41  7.92         4         4    864.4673    484.0480     0.797     0.313 -57.98     1110.282
       813     37.25952  -3.9281  4.72  6.60         2         3   1552.0000    481.9815     0.833     0.289  90.00     1110.249
       814     35.58447  -3.8782  6.52  8.58         3         3   1944.6425   1473.3010     0.573     0.335  42.44     1110.482
       815      9238.38  -9.9140  3.50  5.94       252       278    906.5491   1473.3617     3.667     3.046 -64.24     1109.622
       816      54.1698  -4.3344  7.14  9.24         4         4   1114.5205    476.5205     0.509     0.490 -45.00     1110.442
       817     1365.168  -7.8380  3.69  3.96        31        36    449.4009   1481.5865     1.301     1.194 -67.75     1108.252
       818     130.1182  -5.2858  5.26  5.94         9        13    334.6392   1457.1044     1.110     0.844 -51.10     1110.284
       819      181.675  -5.6482  3.50  6.60        10        13    320.3761   1472.1536     0.956     0.864 -63.86     1110.487
       820     48.02991  -4.2038  3.50  7.92         3         3    203.7286    474.6920     0.538     0.349 -47.63     1110.305
       821     40.62939  -4.0221  8.08  7.92         3         4    613.5091   1478.4984     0.503     0.497 -45.34     1108.316
       822     91.54749  -4.9041  5.47  6.60         8        10   1298.3424   1430.6990     0.904     0.863  11.44     1109.992
       823     87.66638  -4.8571  3.50  7.92         7         7   1203.0688   1469.9598     0.887     0.528 -44.39     1110.448
       824     53.01672  -4.3110  6.53  4.62         5         5   1391.8053   1473.5997     0.760     0.440  20.29     1109.871
       825      77.5686  -4.7242  3.50  3.50         5         7   1704.9447   1449.3208     0.746     0.656 -14.97     1110.217
       826     6797.555  -9.5809  3.50  3.96        61        71   1905.0814   1427.0060     1.454     1.353 -60.55     1110.298
       827     4552.636  -9.1457  3.50  3.96        57        67    623.3304   1457.5488     1.476     1.383 -47.83     1108.615
       828     38058.45 -11.4511  3.50  3.50       158       181   1219.5105   1446.7656     1.682     1.568 -83.19      1110.36
       829     57.09338  -4.3915  8.85 10.56         4         7    445.0247   1466.7642     0.711     0.424   1.03     1108.546
       830      480.202  -6.7036  3.50  5.28        22        24   1458.2521   1460.9061     1.161     1.097  83.19     1110.191
       831       410.04  -6.5321  3.50  5.28        19        21   1375.3768   1462.2257     1.131     1.053  55.34     1109.818
       832     507.1743  -6.7629  4.90  6.60        29        33    104.4988   1458.7898     1.881     1.090  -5.55     1109.211
       833     180.6731  -5.6422  3.50  5.94        10        11   2025.2828   1464.9856     0.956     0.721 -18.03     1110.568
       834       4511.4  -9.1358  3.50  3.96        50        53   1120.6282   1465.4556     1.374     1.270 -67.72      1110.44
       835     63.06763  -4.4995  5.59  7.92         5         6   1636.4631   1460.3318     0.889     0.471   0.87     1110.188
       836     246.7153  -5.9805  3.56  4.62        13        14    662.3680   1406.2291     1.020     0.828  65.47      1109.36
       837     1183.258  -7.6827  3.99  3.96        31        34    773.6988   1460.8383     1.286     1.187  88.92     1108.605
       838     380.3666  -6.4505  4.75  5.94        25        29   1577.1357   1453.2510     2.013     0.920  44.68     1110.179
       839     80.15222  -4.7598  3.50  7.26         6         6    189.4998   1460.0397     0.783     0.500  89.34     1110.429
       840      79.9187  -4.7566  4.14  5.94         7         7   1825.9978   1457.3047     0.726     0.660  -5.66       1110.3
       841     505.9219  -6.7602  3.50  5.28        23        30   1888.5754   1452.2866     1.445     1.238  23.39     1110.346
       842     50.58838  -4.2601  5.42  9.24         4         6   1269.3568   1443.2871     0.916     0.511 -47.51     1110.115
       843     104.5663  -5.0485  5.62  6.60         9        11   1311.6493   1443.9818     1.016     0.819   3.76     1109.909
       844     202.7018  -5.7671  3.50  6.60        15        20   1362.1018   1451.3949     1.378     1.105  67.02     1109.793
       845     568.2383  -6.8863  3.53  5.28        18        23   1302.2524   1442.1531     1.130     1.089  87.88      1109.96
       846     144.5568  -5.4001  5.44  4.62         8        11    655.9431   1437.3834     0.957     0.740 -73.39     1108.914
       847     37.21704  -3.9269  5.22  5.28         3         3    833.7104   1427.3419     0.561     0.340  47.78     1109.123
       848     2041.493  -8.2749  3.50  5.94        67        72   1424.0048   1379.9851     2.496     1.301 -60.87     1110.097
       849     2885.005  -8.6504  5.13  8.58       145       181    253.6582   1279.0367     6.269     1.716 -38.28      1110.39
       850     436.9224  -6.6010  3.50  5.28        14        23   1841.8794   1435.0870     1.106     0.987 -24.55     1110.262
       851     40.43188  -4.0168  6.19  5.28         3         3   1318.2954   1437.6389     0.572     0.335  48.02     1109.894
       852     2809.407  -8.6215  3.80  5.94       103       113   1728.2407   1425.4668     2.623     2.117  60.25     1110.186
       853     80.73438  -4.7676  5.93  6.60         7         8   1070.5607   1425.7478     1.492     0.434   0.40     1110.373
       854     48.27234  -4.2092  4.60  7.26         5         5     15.5584   1426.1812     1.018     0.376   5.15     1108.638
       855     614.1941  -6.9708  4.24  5.28        31        35    377.0004   1419.5881     1.549     1.323  24.06     1109.927
       856     144.8724  -5.4025  3.50  7.92        12        14   1175.0016   1434.9803     1.190     0.876 -87.28     1110.354
       857     42.73108  -4.0769  3.50  0.00         3         4   1186.5131   1424.0186     0.769     0.323  56.85     1110.319
       858     74.64282  -4.6825  6.70  3.50         5         7   1349.0510   1414.6713     0.742     0.651 -16.50      1109.87
       859     321.9863  -6.2696  6.05  5.28        17        21   1742.5919   1425.9281     1.241     1.054  72.30     1110.195
       860     57.71411  -4.4032  3.56  7.92         4         4    917.5374   1421.4893     0.505     0.493  48.13     1109.976
       861     34.45691  -3.8432  3.50  5.28         3         3   1573.6921   1422.6469     0.574     0.334 -47.02     1110.169
       862     63.51965  -4.5073  6.85  5.28         5         5   1139.6227   1405.8448     0.750     0.442  70.75       1110.3
       863     134.5432  -5.3222  3.50  4.62         8         9   1473.9130   1391.0406     0.783     0.765 -56.71     1110.176
       864     308864.1 -13.7244  3.50  3.50      1781      1990    243.2868   1359.1179     5.641     4.857  79.50     1110.487
       865     219.4797  -5.8535  3.50  5.28        15        16   1598.6847   1416.4501     1.129     0.936 -68.30     1110.156
       866     2578.659  -8.5285  3.50  5.94       126       139   1763.7975   1409.5991     3.363     2.314 -34.68     1110.175
       867     48.47095  -4.2137  4.94  6.60         4         5   1990.7794   1411.6101     0.762     0.442  19.34     1110.323
       868     150.9941  -5.4474  5.31  4.62        11        13   1786.4633   1398.4205     1.369     0.683  57.76     1110.161
       869     57.42236  -4.3977  3.50  5.28         5         7    336.1406   1415.4137     0.877     0.615  80.54     1110.346
       870     140.4458  -5.3688  3.50  7.92         9        11   1910.1810   1404.1036     0.894     0.832 -40.72     1110.239
       871      41.6781  -4.0498  6.11  7.92         3         5   1381.8055   1378.3746     0.764     0.442 -18.39     1110.045
       872     405.2474  -6.5193  3.50  4.62        18        20    355.2096   1407.2520     1.066     1.010 -32.31       1110.2
       873     48.42554  -4.2127  3.50  8.58         4         4   1461.0101   1384.2271     0.690     0.419  -0.44      1110.15
       874     44.95886  -4.1320  6.53 10.56         3         4    898.4465   1403.9249     0.797     0.312  58.11     1109.894
       875     2964.054  -8.6797  3.50  4.62        59        67    673.7806   1404.2782     1.620     1.524 -75.21     1109.379
       876     141.0061  -5.3731  3.50  3.96         4         6   1584.3217   1409.7323     0.685     0.532 -41.59      1110.16
       877     236.3295  -5.9338  3.50  4.62        13        16     39.9967   1403.6217     1.091     0.894  24.19     1109.285
       878     476.1315  -6.6943  3.50  5.28        19        22   1399.8763   1399.1427     1.127     1.052 -48.62     1110.033
       879      4125.43  -9.0387  3.50  3.96        54        59   2043.5474   1386.8445     1.406     1.351 -79.24     1110.256
       880     75.04785  -4.6883  3.50  6.60         6         7   1769.0176   1392.9768     0.866     0.538 -49.44     1110.145
       881     41.74097  -4.0514  3.50  0.00         3         3   1411.3083   1383.3251     0.563     0.341 -45.87     1110.076
       882       111.04  -5.1137  3.60  5.28         8         8   1723.0872   1391.1287     0.812     0.660 -45.56     1110.127
       883     139.9092  -5.3646  4.50  3.96        10        12   1318.7434   1390.5482     1.074     0.849 -31.21         1110
       884     126.5869  -5.2560  6.37  7.26        12        12   1678.6354   1387.7559     1.012     0.867  13.77     1110.132
       885     45.51416  -4.1454  5.83  5.28         3         3    919.7069   1395.2877     0.539     0.349  44.62      1110.08
       886     164.3706  -5.5396  3.50  5.94        12        12   1193.1707   1398.1865     1.131     0.720  79.69     1110.241
       887     1569.431  -7.9894  3.50  3.96        33        37    880.5118   1392.0745     1.276     1.197 -69.73     1109.869
       888       65.849  -4.5464  6.01  5.94         4         5    131.4494   1399.2828     0.739     0.453  69.31     1110.036
       889     6306.813  -9.4995  3.50  3.96        70        77   1927.7704   1369.2656     1.511     1.401 -78.94     1110.146
       890     39.57141  -3.9935  7.20  7.26         3         3   1615.3171   1391.3314     0.569     0.338 -45.68     1110.147
       891     100.3063  -5.0033  6.68  4.62         8         8    689.1242   1399.0936     0.802     0.652 -42.63     1109.438
       892     26.37219  -3.5529  7.41 10.56         2         3   1131.6519   1366.2982     0.568     0.338  42.57     1110.216
       893     736.7419  -7.1683  3.50  5.28        43        49   1782.4756   1386.0791     2.455     1.333 -46.13     1110.136
       894     1458.266  -7.9096  3.50  4.62        33        38    471.2589   1382.3822     1.341     1.198 -59.93     1109.795
       895     68.39648  -4.5876  6.28  7.26         4         5   1403.9131   1354.0345     0.612     0.592   7.02     1110.108
       896     68.78442  -4.5937  3.50  7.92         6         6    833.5254   1384.4901     0.934     0.420 -18.97     1109.711
       897     5767.617  -9.4025  3.50  3.96        57        69    890.4284   1374.5427     1.451     1.360 -70.00     1110.037
       898     166.7007  -5.5548  3.50  5.94         8        12    399.2910   1365.5669     0.974     0.759 -63.39     1110.215
       899     29299.07 -11.1671  3.50  3.50       156       168    610.6401   1371.4272     1.698     1.585 -76.46     1109.925
       900     184.9786  -5.6678  6.76  7.26        13        18    651.9901   1370.7726     1.364     1.176  54.76     1109.877
       901     431.4127  -6.5872  3.50  5.28        24        27    478.4594   1367.5715     1.345     1.187  33.42     1110.011
       902     76.73425  -4.7125  7.72  3.96         7         8   1016.1846   1359.1835     0.794     0.695 -47.03      1110.26
       903     361.2009  -6.3944  3.54  5.94        16        20    637.8524   1382.1421     1.184     0.950  52.53     1109.731
       904     143.6367  -5.3932  4.49  6.60         8         9   2000.9418   1369.0186     0.789     0.735  48.26     1110.166
       905     149.6472  -5.4377  5.20  5.94         9         9   1592.0376   1374.9677     0.764     0.751  49.91     1110.147
       906     318.3018  -6.2571  3.50  6.60        22        26    992.3672   1349.8007     1.343     1.262   8.75     1110.249
       907     69.40527  -4.6035  5.13  7.92         5         8   1721.1560   1363.1886     0.821     0.692 -42.61      1110.08
       908      200.062  -5.7529  5.36  6.60        15        18   2006.5328   1372.2064     1.263     1.046  64.06      1110.18
       909     1102.047  -7.6055  3.50  5.28        30        33   1394.6749   1371.7097     1.281     1.167 -43.01     1110.072
       910     691.4131  -7.0993  3.50  3.96        21        26   1613.7922   1366.6952     1.175     1.056 -81.63     1110.139
       911     186.1146  -5.6745  3.50  6.60        13        14   1706.0404   1401.9832     1.111     0.854  -2.14     1110.147
       912      3088.08  -8.7242  3.50  3.96        46        54   1332.3549   1365.8367     1.436     1.286 -60.92     1110.051
       913     354.9351  -6.3754  4.31  5.28        21        25   1363.3524   1320.1191     1.446     1.140 -74.74     1110.121
       914     119.2124  -5.1908  5.53  6.60         8        11    573.7197   1358.0338     1.238     0.638 -53.35     1110.165
       915      424.548  -6.5698  3.64  5.28        22        24   1573.0897   1344.6609     1.272     1.102 -62.16     1110.136
       916     3662.564  -8.9095  3.50  4.62        48        58   1530.1276   1357.2413     1.512     1.282 -71.20     1110.139
       917      259.447  -6.0351  3.68  5.94        11        17    360.6501   1364.9595     1.012     0.981 -53.84     1110.352
       918     270218.3 -13.5793  3.50  3.50       472       543   1113.4160   1333.5824     2.021     1.843  86.31      1110.18
       919     1591.563  -8.0046  3.87  5.94        54        62    701.5532   1346.5958     1.727     1.702 -59.39     1110.155
       920      1217.32  -7.7135  3.50  5.28        40        47    939.9255   1340.4218     1.630     1.367  64.23     1110.243
       921     144.2833  -5.3980  3.50  7.26         9        11    793.8362   1341.1764     0.902     0.875  30.87     1110.226
       922     1017.271  -7.5186  3.50  4.62        28        32    882.4299   1330.9993     1.254     1.208 -25.50     1110.242
       923      247.613  -5.9844  5.60  6.60        16        20   2039.1716   1345.6283     1.383     0.970 -12.74     1110.079
       924     133.5033  -5.3137  4.75  7.26         9         9    729.0135   1345.9951     0.798     0.767 -52.13     1110.177
       925     48.69434  -4.2187  5.56  7.26         4         4   1279.5359   1337.4904     0.515     0.483  46.09     1110.087
       926     46.79968  -4.1756  5.60  7.92         4         4   1223.5186   1342.5061     0.500     0.500 -71.75     1110.059
       927     14101.78 -10.3732  3.50  3.50        89        99    832.6026   1325.9099     1.560     1.428 -77.14     1110.245
       928     256.6882  -6.0235  7.01  5.28        18        19    917.0341   1306.3206     1.207     1.023  43.37     1110.231
       929     359.1956  -6.3883  3.50  5.94        16        20   1345.4849   1334.6393     1.260     0.925 -63.63     1110.122
       930     408.4912  -6.5280  3.50  4.62        17        20   1992.5647   1328.9922     1.143     0.985 -45.55     1110.042
       931     89.88367  -4.8842  7.30  9.24         7         9   1167.4075   1284.9113     1.096     0.577 -27.26     1110.078
       932     203.6631  -5.7723  3.50  5.28        12        13   1638.9658   1325.9745     1.097     0.717 -73.32     1110.102
       933     373.1031  -6.4296  3.50  5.28        15        21    743.0424   1332.0840     1.111     1.044 -74.55     1110.211
       934      170.288  -5.5780  3.50  6.60         7        16   1931.3882   1329.2048     1.030     0.775  74.91     1110.043
       935     841.5841  -7.3127  3.62  5.94        38        44    116.6355   1360.1455     1.704     1.433  66.43     1110.284
       936      106.984  -5.0733  4.78  5.28         7         8   2043.9310   1361.4814     0.846     0.672 -45.59     1110.144
       937     244.9932  -5.9729  5.10  5.94        16        19   1931.3300   1333.9521     1.291     0.998 -57.12     1110.053
       938     91.94788  -4.9089  4.06  5.94         8         8   1602.9432   1316.2782     1.017     0.644 -10.31     1110.132
       939     6090.342  -9.4616  3.50  3.96        63        72   1750.9513   1358.7513     1.476     1.363 -59.22     1110.075
       940     112.3384  -5.1263  6.07  5.94         9        10   1364.4912   1315.0437     1.046     0.762  87.41     1110.121
       941      34707.5 -11.3511  3.50  3.50       160       183   1271.9290   1355.8414     1.703     1.583 -70.08     1110.086
       942     103.9268  -5.0418  3.50  6.60         8         8   1562.7566   1316.4132     0.899     0.621 -15.96      1110.13
       943     604.1997  -6.9530  3.50  4.62        17        24   1016.5552   1321.8462     1.133     1.054 -41.91     1110.215
       944     156999.2 -12.9897  3.50  3.50       358       410   1573.9423   1256.8081     1.924     1.794 -72.68     1110.121
       945     971.7227  -7.4689  3.50  5.28        35        46     25.1570   1312.3124     1.869     1.238  57.05     1110.361
       946     306.7821  -6.2171  3.50  4.62        14        18      4.1099   1320.0182     1.128     0.924 -34.92     1110.346
       947     38.52356  -3.9643  3.97  7.26         3         3   1354.3009   1322.3409     0.566     0.339 -47.00     1110.122
       948     1948.822  -8.2244  3.50  3.96        35        40    782.2983   1312.2032     1.306     1.205 -52.83     1110.238
       949     1261.693  -7.7524  3.63  4.62        25        32    646.7491   1358.5869     1.267     1.127 -64.14     1110.058
       950     1417.117  -7.8785  4.09  5.28        44        50    845.9728   1309.3002     1.556     1.493 -32.78     1110.243
       951       132947 -12.8092  3.50  3.50       333       368   1812.7231   1281.2573     1.883     1.797 -85.35      1109.96
       952     145.9982  -5.4109  4.52  3.50        11        13   1212.7079   1298.0575     1.343     0.712   4.03     1110.046
       953     572.1293  -6.8937  3.50  5.28        24        26    646.9615   1310.5265     1.290     1.095  69.99     1110.299
       954     314.1584  -6.2429  4.11  6.60        16        20    796.0856   1270.5717     1.124     1.078  58.05     1110.257
       955     705.8276  -7.1217  3.90  7.26        37        42   1536.9982   1300.7502     2.120     1.215 -59.48     1110.125
       956     571.9017  -6.8933  3.50  4.62        19        24    456.3480   1299.3893     1.182     1.056 -63.12     1110.391
       957     194.3522  -5.7215  4.69  7.26        10        15    985.0242   1298.2050     1.047     0.776  37.07     1110.209
       958     280.3544  -6.1193  5.66  6.60        20        27   1865.4008   1284.8997     2.303     0.861  43.03     1109.963
       959     136.0292  -5.3341  3.50  6.60         9        11   1197.3606   1289.1930     1.060     0.784  71.16     1110.056
       960     304.7336  -6.2098  4.02  3.96        16        20   1989.5251   1282.6462     1.157     1.037 -51.78     1109.949
       961     700.7952  -7.1140  3.50  5.28        22        27   1190.4563   1298.9567     1.174     1.139  12.73     1110.067
       962     387.9733  -6.4720  5.99  7.92        26        30    142.1187   1299.3152     1.490     1.326 -77.85     1110.374
       963     4730.144  -9.1872  3.50  4.62        54        63   1442.9427   1356.6577     1.401     1.355 -67.49     1110.122
       964     23.92834  -3.4473  6.02  9.24         3         3   1242.2979   1257.3427     0.565     0.339 -47.25     1110.048
       965     120.0901  -5.1988  5.82  4.62         8        10   1206.1345   1270.4994     0.926     0.725 -88.94     1110.041
       966     196.8909  -5.7356  3.50  5.94        15        18    933.9509   1263.4946     1.295     0.965 -25.12     1110.211
       967     1804.747  -8.1410  3.88  3.50        42        48   1577.7321   1280.5247     1.498     1.277  87.42     1110.125
       968     223.6272  -5.8738  5.39  7.26        15        21   1764.9137   1273.0258     1.534     1.057 -76.88     1109.953
       969     149.5487  -5.4370  3.50  6.60        12        15    896.9815   1265.0249     1.350     0.788  87.04     1110.224
       970     74.62659  -4.6822  5.93  6.60         6         8   1365.8888   1277.6383     1.612     0.460  46.35     1110.121
       971     280.7032  -6.1206  3.50  5.28        13        17    546.4390   1279.9312     1.080     0.927  74.30     1110.403
       972     1930.492  -8.2142  3.50  4.62        36        42    758.1005   1296.4625     1.343     1.237 -46.62     1110.248
       973     25399.02 -11.0120  3.50  3.96       116       127    832.0020   1278.5200     1.581     1.515 -33.03     1110.245
       974     304.5416  -6.2091  3.51  5.28        14        19   2019.9370   1263.7606     1.137     0.991  53.34     1109.908
       975     103.9093  -5.0416  6.54  4.62         6         7   1360.8671   1249.6707     0.729     0.648  13.66     1110.121
       976     62.00928  -4.4811  3.78  5.94         5         5   1198.7764   1236.3706     0.765     0.449 -16.69      1110.03
       977     269.4031  -6.0760  5.82  5.94        20        24   1944.0388   1266.9183     1.470     1.149  21.93     1109.922
       978     2814.167  -8.6234  3.60  5.28        74        91    816.2141   1259.1047     2.003     1.792 -59.63     1110.253
       979     245.5338  -5.9753  4.48  7.92        12        15   1614.6113   1234.3472     1.028     0.895  48.26     1110.095
       980     174.0311  -5.6016  3.50  4.62         9        11    722.8617   1354.8673     0.840     0.824 -52.43     1110.048
       981     737.7974  -7.1698  3.50  4.62        21        26   1257.9379   1252.5906     1.183     1.059 -75.26     1110.058
       982     68.76111  -4.5934  3.50  6.60         5         5   1643.6184   1227.7772     0.728     0.449  71.21     1110.045
       983     156.5597  -5.4867  4.54  4.62        12        12   1500.4449   1229.0015     1.078     0.780  -3.06     1110.115
       984     697.1434  -7.1083  4.83  5.28        40        45   1935.7681   1228.4755     2.397     1.240 -15.40     1109.846
       985     23238.11 -10.9155  3.50  3.96       125       135    826.0319   1230.6339     1.621     1.503 -80.92      1110.25
       986     51.16797  -4.2725  3.50  7.26         4         4     83.2190   1253.0289     0.683     0.413 -88.77     1110.357
       987     58.67249  -4.4211  7.02  8.58         4         5   1069.3851   1241.1462     0.771     0.441  71.03     1110.096
       988     404.0731  -6.5161  3.50  7.26        23        30     70.9750   1235.7866     1.680     1.372 -56.92     1110.365
       989     3610.963  -8.8941  3.50  3.96        50        56    108.7546   1347.4763     1.419     1.289 -59.98     1110.391
       990     222.2524  -5.8671  7.02 10.56        17        19   1743.6060   1226.8098     1.697     0.938  70.57     1109.897
       991     856.6133  -7.3320  3.50  4.62        24        28    805.5706   1233.9617     1.194     1.112 -50.15     1110.265
       992       231394 -13.4109  3.50  3.50       410       453   2037.9797   1211.2321     1.954     1.786 -83.37     1109.809
       993     339.8854  -6.3283  7.42  6.60        24        33   1724.6731   1238.7362     2.144     1.131 -85.42     1109.923
       994     143.9708  -5.3957  5.70  5.28        10        12   1716.7677   1233.6089     1.443     0.617  74.97      1109.93
       995     875.0575  -7.3551  3.50  5.28        25        27    730.3420   1225.1461     1.206     1.113  15.77     1110.333
       996     1820.794  -8.1507  3.50  3.96        37        43    997.5740   1176.6624     1.425     1.206 -88.66     1110.151
       997      1480.69  -7.9262  3.50  3.96        31        38   1909.4333   1211.0356     1.287     1.227 -80.13     1109.828
       998     787.4296  -7.2405  5.50  5.28        38        40    382.7506   1216.7758     1.615     1.383  20.15     1110.436
       999     6490.838  -9.5308  5.01  3.50       235       304    499.5905   1169.2037     4.259     3.623 -84.55     1110.416
      1000     125.5865  -5.2474  5.71  5.94        10        11   1854.2074   1230.7006     1.230     0.718   3.05     1109.864
      1001     2099.183  -8.3051  4.69  8.58        80        92   1880.4755   1207.8613     2.089     2.030 -89.77     1109.832
      1002     256.5624  -6.0230  6.51  7.92        18        23    937.1810   1216.9597     1.332     1.153 -36.89      1110.19
      1003     254.4062  -6.0138  7.75 10.56        20        22    502.7694   1210.3390     1.412     1.239 -75.01     1110.435
      1004     1884.981  -8.1883  4.94  5.94        54        67    540.3636   1218.2877     1.951     1.546 -72.59     1110.439
      1005     94.70752  -4.9410  6.26  6.60         8         9   1106.1567   1210.2947     0.947     0.680 -69.06     1110.048
      1006     597.0955  -6.9401  3.50  5.28        21        24   1012.9160   1208.9539     1.165     1.104 -81.22     1110.127
      1007      451.967  -6.6378  4.34  5.94        22        27    166.3004   1185.9056     1.292     1.220  77.76      1110.21
      1008     1772.402  -8.1214  3.50  4.62        33        38     69.3777   1214.8998     1.292     1.202 -47.33     1110.364
      1009       235516 -13.4301  3.97  6.60      6763      7805    548.6858   1150.4435    16.925    16.176  60.02     1110.407
      1010     706.0577  -7.1221  3.82  3.96        20        24   2013.1489   1197.2673     1.133     1.096 -43.53     1109.813
      1011      107.542  -5.0789  5.27  3.50         9        10   1641.3040   1206.3696     1.273     0.849 -72.91     1110.044
      1012     3030.706  -8.7039  3.50  3.96        48        55    724.7897   1229.5073     1.438     1.298 -59.71     1110.331
      1013     3739.615  -8.9321  4.25  6.60       121       149   1766.5057   1176.1810     2.675     2.262 -45.37     1109.873
      1014     50.42114  -4.2565  5.44  7.26         4         4     41.5039   1186.4395     0.508     0.488 -39.91      1110.37
      1015     41159.54 -11.5362  3.50  3.50       173       191   1314.6536   1190.8772     1.714     1.622 -70.12     1110.102
      1016     29.53589  -3.6759  3.50  9.90         3         3   1803.3198   1199.6553     0.576     0.334  46.08     1109.858
      1017     161.6868  -5.5217  6.26  3.50        13        16   2019.5840   1161.8358     1.536     0.750  68.98     1109.814
      1018     472.9336  -6.6870  3.50  4.62        23        24   1931.3970   1185.7020     1.330     1.086  83.82     1109.823
      1019     1186.109  -7.6853  3.50  4.62        27        34    950.2538   1181.1230     1.244     1.184 -80.66     1110.182
      1020     403.0729  -6.5135  3.50  4.62        16        21    748.8325   1189.1014     1.120     1.014 -85.54     1110.292
      1021     164.9185  -5.5432  3.50  5.28         9        11    903.6390   1183.9016     0.995     0.712 -63.11       1110.2
      1022     574.0334  -6.8973  4.54  5.28        20        28   2014.3528   1190.8267     1.223     1.064 -21.73     1109.813
      1023     4900.329  -9.2256  3.50  5.28       148       161    709.5050   1176.2950     3.020     2.552 -54.34     1110.302
      1024     880.3357  -7.3616  3.75  4.62        23        28   1665.8463   1178.7452     1.221     1.105 -63.49         1110
      1025     721.6423  -7.1458  4.53  5.28        31        36    355.1502   1177.6731     1.462     1.310 -19.67     1110.418
      1026      78.0144  -4.7304  7.50  9.90         5         8   1392.5137   1188.5813     1.142     0.500  89.30     1110.121
      1027     355.3125  -6.3765  4.17  6.60        15        24     17.7462   1182.5071     1.080     0.968   0.24     1110.397
      1028     1231.535  -7.7261  3.50  4.62        29        34   1568.7323   1179.0143     1.262     1.205 -83.18     1110.114
      1029     140.5879  -5.3699  4.27  6.60        11        12    862.0311   1185.6667     1.009     0.855  59.48     1110.217
      1030     376.9952  -6.4408  4.79  7.26        24        30   1147.0023   1179.8264     1.804     1.094  79.26     1110.057
      1031      31.6416  -3.7506  5.83  9.90         2         3   1877.6892   1161.3107     0.557     0.343  45.00     1109.826
      1032     8598.557  -9.8361  3.62  6.60       246       283    573.1580   1148.8905     6.648     2.490 -67.38     1110.407
      1033     1744.927  -8.1044  3.50  4.62        33        40   1581.1506   1175.8417     1.272     1.257  17.44     1110.114
      1034     766.8975  -7.2118  3.74  4.62        24        27   1139.2488   1175.9810     1.224     1.113  83.77     1110.064
      1035     372.6427  -6.4282  3.71  5.28        18        21    336.1210   1184.2883     1.199     1.127  75.69     1110.421
      1036      2176.09  -8.3442  3.50  4.62        39        42    816.8099   1179.1544     1.309     1.220 -68.52     1110.236
      1037     1871.008  -8.1802  5.03  5.94        99       128   1406.4043   1111.7062     5.141     1.594 -82.95     1110.126
      1038     229.4086  -5.9015  3.50  6.60        17        21   1689.3495   1147.9811     1.511     1.001 -72.20      1109.96
      1039      124.459  -5.2376  3.50  7.26        10        11    170.7274   1170.2742     1.183     0.653  36.60     1110.201
      1040       74.177  -4.6757  3.50  4.62         5         5    833.7744   1123.6176     0.729     0.453  17.91     1110.196
      1041     300.5455  -6.1948  3.50  7.26        17        23   1736.5461   1156.4487     1.301     1.160 -59.74     1109.886
      1042     119.1764  -5.1905  7.51  9.90         9        12    150.7298   1161.4364     1.037     0.887  34.48     1110.221
      1043     6296.329  -9.4977  3.89  5.94       180       206   1308.7249   1117.3069     3.384     2.370 -19.79     1110.109
      1044     721.7314  -7.1459  3.50  4.62        20        24     85.9384   1202.0524     1.149     1.051 -89.04     1110.327
      1045     2790.959  -8.6144  3.50  4.62        42        48    807.9006   1133.1412     1.351     1.285 -80.36     1110.209
      1046     44629.14 -11.6240  3.50  3.50       184       196   1043.1110   1168.9399     1.721     1.617 -66.52     1110.125
      1047      93.5083  -4.9271  6.04  7.92         6         8   1260.0369   1154.4907     0.767     0.714  89.17     1110.065
      1048      46.4231  -4.1668  3.50  7.26         4         4    175.4933   1127.5547     0.504     0.493  37.69      1110.19
      1049     2570.746  -8.5251  3.50  4.62        43        49    303.0099   1111.4410     1.364     1.291 -54.45     1110.358
      1050     188.2856  -5.6870  5.00  7.26        15        18    411.5017   1146.8206     1.215     0.995  89.97     1110.404
      1051     6910.012  -9.5987  3.50  3.96        77        90   1958.7240   1135.3224     1.573     1.482 -40.47     1109.818
      1052     38.59436  -3.9663  3.50  7.26         3         3   1023.6550   1162.6637     0.584     0.329 -44.65      1110.14
      1053     2115.045  -8.3133  3.50  4.62        38        44   1195.7920   1143.7062     1.374     1.224  69.16     1110.048
      1054     25170.76 -11.0022  3.50  3.50       127       141    935.3691   1108.3026     1.603     1.532 -86.15      1110.18
      1055     711.1425  -7.1299  4.59  5.28        39        46   1013.1367   1151.9432     1.991     1.392 -85.61     1110.151
      1056     802.7493  -7.2614  3.82  5.28        24        28    583.3431   1041.9926     1.184     1.170 -18.74     1110.288
      1057     1112.624  -7.6159  4.07  6.60        41        46   1051.1600   1127.0986     1.838     1.248 -44.13      1110.15
      1058     221.5975  -5.8639  7.42  7.92        19        21    267.4442   1141.3062     1.468     1.074  35.66     1110.306
      1059     56.06519  -4.3717  4.85  7.26         4         5   1867.7635   1123.4252     0.752     0.450 -19.84     1109.822
      1060     127.9869  -5.2679  6.10  7.92         9        10    114.0060   1154.1376     0.906     0.743 -85.66     1110.257
      1061     2837.251  -8.6322  3.50  3.96        44        51    883.2009   1143.1246     1.360     1.302 -63.16     1110.195
      1062     235.1633  -5.9284  3.50  4.62        10        11     15.0545   1125.7566     0.926     0.734 -76.67      1110.32
      1063      47484.7 -11.6914  3.50  5.28       960      1035    375.3612   1113.5673     7.703     5.085 -10.34      1110.39
      1064     6263.517  -9.4920  3.50  3.96        63        69    115.0928   1143.7870     1.436     1.348 -74.35      1110.25
      1065     100.9694  -5.0105  5.63  5.94         7         7    662.0027   1133.6906     0.726     0.659   6.33     1110.297
      1066     157.2732  -5.4916  4.20  5.94        12        16    895.1199   1113.5099     1.388     0.887  23.54     1110.185
      1067      221.802  -5.8649  5.79  7.26        18        19    644.5777   1137.4041     1.372     0.915   7.09      1110.32
      1068     3881.932  -8.9726  3.50  3.50        53        63   1433.3997   1122.0209     1.444     1.346 -70.99      1110.12
      1069      1121.88  -7.6249  3.50  5.94        44        49   1731.1504   1121.5653     1.638     1.563  45.87     1109.889
      1070     102.8816  -5.0308  3.50  5.94         6         6    718.4759   1119.0035     0.775     0.499  89.24     1110.219
      1071     4238.613  -9.0681  3.50  3.96        51        62   1972.6040   1126.0515     1.419     1.321 -78.79     1109.817
      1072     2678.382  -8.5697  3.50  4.62        44        49   1097.2487   1109.9133     1.364     1.294  85.83     1110.149
      1073     550.3987  -6.8517  4.55  5.28        17        20      9.4723   1069.1477     1.107     0.953 -63.84     1110.269
      1074     115.4661  -5.1561  3.50  5.94         8        10    630.5162   1227.1716     0.916     0.730   1.64     1110.399
      1075     86.47888  -4.8423  7.83  9.24         6         7   1863.9652   1119.9653     0.899     0.525  44.39     1109.822
      1076     179.4232  -5.6347  7.86 10.56        13        17   1740.3413   1194.5964     1.460     1.027 -63.92     1109.885
      1077     222.1068  -5.8664  3.63  6.60        13        15   1829.5884   1117.2230     1.201     0.827  -2.63     1109.836
      1078      17240.3 -10.5914  3.89  5.94       772       920   1448.4971   1074.2999     9.128     5.482 -35.09     1110.134
      1079     31.58984  -3.7489  7.40  7.26         3         3   1864.3544   1100.3124     0.577     0.333 -43.19     1109.818
      1080      32422.6 -11.2771  3.50  3.50       146       160   1511.1001   1099.9150     1.661     1.570 -78.60     1110.114
      1081     96.22644  -4.9582  4.99  7.26         6         8   1674.7362   1117.5471     0.958     0.588 -68.74     1109.985
      1082     281.0795  -6.1221  5.59  7.26        17        20    656.5797   1087.6562     1.331     0.932 -88.26     1110.254
      1083      171.673  -5.5868  3.50  4.62        10        13    245.3577   1099.6431     0.984     0.832 -45.34      1110.26
      1084     61.77637  -4.4771  3.50  7.92         4         7   1648.7554   1098.7529     0.868     0.353  18.18      1110.03
      1085     384.6873  -6.4628  8.13 10.56        22        33    532.4731   1095.8759     1.701     1.166 -62.28     1110.381
      1086     835.2831  -7.3046  4.73  5.28        39        50   1767.2888   1126.9651     1.905     1.401 -71.71      1109.87
      1087     210.0111  -5.8056  3.50  6.60        11        14     29.7774   1095.4939     0.945     0.899  88.98     1110.268
      1088     6176.919  -9.4769  3.60  5.94       169       193   1280.2192   1098.1564     3.163     2.294  66.42      1110.09
      1089     2631.513  -8.5505  3.50  3.96        46        51   1527.4474   1095.8047     1.382     1.322  73.95     1110.114
      1090     47.55493  -4.1930  7.87  9.90         4         4   1470.4692   1203.5079     0.500     0.499 -78.06     1110.114
      1091     181.9839  -5.6501  4.50  5.28        11        11   1157.2872   1100.8628     0.843     0.816  64.80       1110.1
      1092      53.3208  -4.3172  5.77  9.24         4         4    803.5355   1088.5206     0.500     0.499  64.72     1110.178
      1093     68.38965  -4.5875  6.07  4.62         5         6   1610.1864   1095.0000     0.928     0.462 -52.79     1110.098
      1094     1048.105  -7.5510  3.50  5.94        66        75    341.8752   1192.6777     2.655     1.888  -9.16     1110.425
      1095     1024.892  -7.5267  6.63 10.56        72        96   1435.3322   1088.8413     3.988     2.104  54.92     1110.122
      1096     265.7236  -6.0611  5.64  7.92        17        21    870.2889   1191.5748     1.396     0.977  -5.21     1110.216
      1097     103.3651  -5.0359  3.50  5.28         4        10   1184.5103   1085.0394     0.745     0.500  89.51     1110.077
      1098     390.6748  -6.4795  6.73  7.26        28        33   1478.7968   1065.1292     2.037     1.260 -38.12     1110.137
      1099     1164.443  -7.6653  5.20  7.92        74        85   1472.0901   1061.3348     3.615     1.644  -5.72     1110.142
      1100     312.0166  -6.2354  3.50  4.62        11        17    182.8110   1072.2272     0.991     0.979  83.26     1110.184
      1101     197.9996  -5.7417  3.50  5.94        15        17   2034.8354   1084.6543     1.246     0.954  -4.49     1109.826
      1102     26.97266  -3.5773  5.46  0.00         3         3    316.3601   1062.3257     0.585     0.328 -43.68     1110.336
      1103     135775.8 -12.8321  3.50  3.50       336       390   1894.6918   1059.3939     1.908     1.778 -72.30     1109.885
      1104     95.46851  -4.9497  3.79  5.94         4         7     85.3246   1045.0809     0.705     0.659  79.36     1110.233
      1105     31.54297  -3.7473  6.73  9.90         3         3   1827.6600   1089.6658     0.581     0.331 -44.77     1109.834
      1106      23049.4 -10.9066  3.50  3.96       125       143   1505.9932   1070.6127     1.661     1.543 -70.93     1110.127
      1107     455.7065  -6.6467  6.30  6.60        36        43    660.6797   1077.4972     2.730     1.320 -43.45     1110.252
      1108     2483.221  -8.4875  3.50  4.62        38        44   2026.8029   1075.1368     1.327     1.242 -86.42     1109.849
      1109     452.7037  -6.6395  4.19  4.62        16        21   1104.9214   1082.8900     1.215     0.931 -44.65     1110.156
      1110     28.51233  -3.6376  8.28 10.56         3         3   1846.3058   1078.3501     0.572     0.336 -47.04     1109.848
      1111     444.5651  -6.6198  3.50  6.60        36        43    925.7954   1065.2488     2.071     1.622  41.02     1110.196
      1112     159.4762  -5.5067  5.08  3.50         7        10   1249.2562   1058.5875     0.889     0.701  82.91     1110.077
      1113     42.91492  -4.0815  3.50  7.26         3         3    370.3185   1055.7234     0.545     0.347  42.25     1110.331
      1114     440.7224  -6.6104  3.50  3.96        14        20    332.4246   1068.3857     1.161     0.899 -89.58      1110.35
      1115     424.0052  -6.5684  3.50  3.50        15        21   1410.1165   1082.0300     1.082     1.047 -83.52     1110.134
      1116     24.89282  -3.4902  5.51  9.90         2         3    393.6656   1061.3224     0.573     0.336  44.45     1110.337
      1117     439.6948  -6.6079  3.50  5.94        33        37    347.9431   1080.5808     2.066     1.274 -61.45     1110.367
      1118     539.2152  -6.8294  3.58  4.62        17        21   1986.5732   1066.1985     1.118     1.022  71.04     1109.869
      1119      396.137  -6.4946  3.50  3.96        12        19   1244.2170   1049.0297     1.044     0.958  85.04     1110.074
      1120     556.5381  -6.8637  3.50  5.28        23        27    212.0428   1058.3702     1.290     1.107 -71.16     1110.206
      1121     6097.946  -9.4630  3.50  3.96        58        67    156.4115   1055.7896     1.452     1.301 -74.65       1110.2
      1122     75832.95 -12.1996  3.50  3.50       258       291   1957.3162   1040.3130     1.913     1.695 -72.98     1109.928
      1123      6036.97  -9.4520  3.50  3.96        68        75   1171.0980   1044.9749     1.487     1.388 -77.52     1110.077
      1124     336.9761  -6.3190  3.50  5.94        14        20   1608.3617   1061.3552     1.160     0.991  -3.56     1110.104
      1125     19441.53 -10.7218  3.50  3.96       112       122    302.1945   1033.8452     1.574     1.510 -87.35     1110.287
      1126     1910.431  -8.2028  3.50  4.62        33        42    445.1346   1048.7903     1.303     1.239 -83.88     1110.315
      1127     16970.93 -10.5743  3.69  5.28       400       454     35.9990   1035.3961     4.268     3.629  70.00     1110.254
      1128       188.09  -5.6859  3.50  3.96         7        11    759.4834   1037.8943     0.967     0.700 -43.71     1110.263
      1129     47.37195  -4.1888  5.43  9.24         4         4   1864.5071   1032.4878     0.507     0.493  44.80     1109.946
      1130     75.02869  -4.6881  3.50  5.28         6         7    782.2668   1033.0090     0.733     0.666 -89.26     1110.271
      1131     111.0499  -5.1138  6.40  5.28         9         9    450.6405   1033.1527     0.911     0.669  15.63     1110.289
      1132      2856.72  -8.6397  3.50  4.62        37        46   1078.1156   1038.8396     1.349     1.218 -62.30     1110.132
      1133     436.8428  -6.6008  3.50  5.28        19        19   1153.5243   1048.0927     1.130     0.952 -77.27      1110.09
      1134     534.3215  -6.8195  4.10  5.28        20        24    790.2194   1018.6990     1.153     1.098  71.49     1110.295
      1135       345.99  -6.3477  4.26  7.26        17        21    286.7610   1042.3440     1.157     1.063  75.56     1110.281
      1136     96.33691  -4.9595  3.50  7.26         6         8    240.5076    970.8879     0.766     0.702  -3.70      1110.21
      1137     61.91956  -4.4796  6.29  9.90         5         6    477.8039    971.0563     0.917     0.473 -54.51     1110.183
      1138     110.0813  -5.1043  5.85  7.92         7        11   1427.6882    975.9799     1.046     0.732  18.07     1110.239
      1139     103.4738  -5.0371  3.50  5.94         6         7   1991.0000   1023.6752     0.726     0.645   8.03     1109.964
      1140     73.78308  -4.6699  6.15  7.26         7         8    570.1396   1030.8997     0.850     0.654  45.92      1110.27
      1141     55.15332  -4.3539  3.50  5.28         3         3   1410.7113    968.6595     0.560     0.341 -47.79      1110.25
      1142     3890.844  -8.9751  3.50  3.96        56        65    649.3011   1035.4017     1.480     1.390  71.58     1110.272
      1143     1011.112  -7.5120  5.33  5.94        50        58    788.4012    985.9911     1.931     1.693   4.11      1110.35
      1144     416.3247  -6.5486  3.50  7.26        27        29    592.7283    983.8325     1.453     1.226 -21.38     1110.203
      1145      111.709  -5.1202  3.68  6.60         8         8   2026.9813   1034.4933     0.776     0.699  86.43     1109.941
      1146      25059.7 -10.9974  3.50  3.50       141       152   1791.3179   1023.9622     1.692     1.581 -66.25     1109.984
      1147     160.8528  -5.5161  5.45  4.62        10        11   1866.1115   1025.6494     1.003     0.728 -73.97     1109.959
      1148     1353.485  -7.8286  3.74  4.62        34        39    613.9141   1032.6360     1.332     1.235  30.81     1110.273
      1149     136.9071  -5.3411  6.00  3.50         7        13   2004.7626   1023.9725     0.982     0.693  87.70     1109.964
      1150     45.31628  -4.1406  7.20  9.24         4         4   1889.4520   1025.4991     0.507     0.490  48.96     1109.962
      1151     94.11511  -4.9341  3.50  4.62         6         8     62.8810   1033.8523     0.806     0.664 -47.89     1110.243
      1152     48.93054  -4.2239  7.16  5.94         4         5   1963.7880    991.3848     0.765     0.448 -17.76     1110.039
      1153     175.9233  -5.6133  7.75  6.60        16        17   1933.3121    993.6654     1.462     0.920 -61.57     1110.032
      1154     228894.6 -13.3991  3.50  3.50       630       696   1354.4264    959.1133     2.732     2.513  89.44     1110.273
      1155     31.34607  -3.7405  3.50  9.90         2         3    119.6545    986.6788     0.577     0.333 -43.95     1110.224
      1156     42.89075  -4.0809  3.65  9.90         3         4    834.4938   1033.4878     0.503     0.497 -44.49     1110.271
      1157     1168.459  -7.6690  5.48  5.28        52        58    855.3168   1016.4031     1.825     1.662  82.92     1110.284
      1158     50.17212  -4.2512  7.12  7.92         4         4   1359.4823   1022.5215     0.511     0.488 -44.81     1110.206
      1159     152.5458  -5.4585  5.16  7.92         9        13    637.1788   1018.5643     1.022     0.872 -88.67     1110.269
      1160     203.4938  -5.7714  3.50  5.94        10        13    175.9495   1020.1277     0.989     0.816  21.08     1110.199
      1161     6485.375  -9.5298  4.00  5.94       180       206   1789.4457   1009.7111     2.981     2.677 -87.49     1110.013
      1162     1668.016  -8.0555  3.50  3.96        36        42   1186.4664    985.8154     1.366     1.269  81.77     1110.052
      1163     111766.9 -12.6208  3.50  3.50       269       295   1490.5044   1009.6308     1.796     1.690 -73.54     1110.183
      1164     2213.759  -8.3628  3.50  3.96        35        42   2031.9316   1015.0837     1.311     1.228 -79.27     1109.984
      1165     3946.896  -8.9906  3.50  3.96        56        64   1755.7001   1009.3434     1.512     1.339 -53.10     1110.023
      1166     113854.4 -12.6409  3.50  3.50       287       310    871.0417   1003.0928     1.839     1.726 -73.70      1110.29
      1167     75.01123  -4.6878  6.10  9.24         6         7    915.4380    984.6909     0.942     0.484  82.37      1110.27
      1168     644.0095  -7.0222  3.86  3.96        18        23   1697.3489   1004.7068     1.120     1.053 -69.31     1110.056
      1169     59.65857  -4.4392  6.07  5.28         5         5    644.6224   1022.1387     0.748     0.441 -70.55     1110.272
      1170     78.06445  -4.7311  3.50  6.60         7         8   1389.2563   1002.6534     0.986     0.579  69.45      1110.22
      1171     516.5354  -6.7828  3.50  5.28        21        22   1051.4453   1002.0949     1.234     0.992 -36.60     1110.126
      1172     246.4617  -5.9794  3.50  5.28        14        17      4.7416   1002.5209     1.304     0.867 -25.59     1110.263
      1173     53.18286  -4.3144  3.50  9.24         4         4   1331.0187   1001.4963     0.753     0.328  33.82     1110.212
      1174     1564.934  -7.9862  3.50  5.28        31        35   1072.7762    998.6158     1.270     1.217 -41.68     1110.101
      1175     1251.769  -7.7438  3.50  4.62        31        35   1066.7705    997.7635     1.327     1.167 -77.29     1110.107
      1176     34.17676  -3.8343  3.50  0.00         3         3    446.6876    999.3580     0.578     0.332  46.92     1110.236
      1177     31914.99 -11.2600  3.50  3.50       153       175   1293.2671    991.0125     1.675     1.560 -74.38     1110.162
      1178     529.4263  -6.8095  3.87  5.28        21        24    951.9310    993.1378     1.235     1.049 -16.80     1110.229
      1179     180.9545  -5.6439  4.52  3.50        11        14   1665.1107    990.9204     1.048     0.880 -57.70     1110.088
