#   1 NUMBER                 Running object number                                     
#   2 FLUX_ISO               Isophotal flux                                             [count]
#   3 MAG_ISO                Isophotal magnitude                                        [mag]
#   4 KRON_RADIUS            Kron apertures in units of A or B                         
#   5 PETRO_RADIUS           Petrosian apertures in units of A or B                    
#   6 ISOAREA_IMAGE          Isophotal area above Analysis threshold                    [pixel**2]
#   7 ISOAREAF_IMAGE         Isophotal area (filtered) above Detection threshold        [pixel**2]
#   8 X_IMAGE                Object position along x                                    [pixel]
#   9 Y_IMAGE                Object position along y                                    [pixel]
#  10 A_IMAGE                Profile RMS along major axis                               [pixel]
#  11 B_IMAGE                Profile RMS along minor axis                               [pixel]
#  12 THETA_IMAGE            Position angle (CCW/x)                                     [deg]
#  13 BACKGROUND             Background at centroid position                            [count]
         1     2018.353  -8.2625  5.03  7.92        66        83    682.1534     28.7994     2.204     1.823 -40.17     1122.842
         2     2254.993  -8.3829  3.91  5.94        75        93     33.4085     20.5502     2.327     2.012 -41.02     1124.743
         3     16872.63 -10.5680  3.50  5.94       331       366    172.7937      9.3479     3.830     3.324   7.78     1123.214
         4     1728.121  -8.0939  5.43  6.60        68        83   1613.3688     12.6167     2.958     1.553 -17.64     1122.847
         5      1781.44  -8.1269  5.33  5.94        81        92   1010.7512     11.4525     2.664     2.060 -29.90     1122.663
         6      209.304  -5.8019  6.27  6.60        13        17    668.5174     13.1819     1.203     1.120  19.75     1122.825
         7     183.1334  -5.6569  5.08  7.26        10        13     96.8806     13.5122     1.068     0.856 -68.48     1124.225
         8     667.8409  -7.0617  4.28  6.60        29        37    323.6441     16.5946     1.583     1.411  42.26     1122.882
         9      93.6145  -4.9284  5.43  7.26         6         7   1959.7288     11.8425     0.870     0.584 -58.10     1122.911
        10     106.9873  -5.0733  5.69  9.90         8         8   1269.7957     11.3847     0.932     0.645 -16.85     1122.741
        11     161.0734  -5.5176  6.30  6.60         9        12   1023.0481      9.5235     1.041     0.776  87.64     1122.792
        12     160.2006  -5.5117  5.55  6.60        10        12     69.1268      9.8808     1.155     0.722  -7.21     1124.605
        13     350.4731  -6.3616  5.07  5.94        19        21   1730.6909      8.0936     1.351     1.008 -17.89     1122.964
        14     7918.156  -9.7466  3.50  3.96        64        72   1856.0588      4.6852     1.564     1.400 -44.18      1122.94
        15      284.989  -6.1371  4.51  4.62        13        17    369.7873      6.0525     1.140     0.940 -26.11     1122.828
        16     1775.828  -8.1235  3.50  5.94        56        63    137.3429      3.1982     2.190     1.541  10.50     1123.676
        17     217.7075  -5.8447  4.03  5.28        11        12   1058.6550      2.0139     0.926     0.886   7.20     1123.176
        18     108.3927  -5.0875  5.77  7.92         8         8    432.1722      3.1372     0.827     0.678 -47.14     1122.711
        19     81.19324  -4.7738  7.37  8.58         6         7    911.4095     15.7258     1.016     0.475  81.85     1122.563
        20     1614.256  -8.0199  3.50  5.28        33        41   1458.2324     27.1273     1.472     1.256 -50.04     1122.823
        21     301.0295  -6.1965  7.91 10.56        18        24    673.5704     26.5924     1.520     1.142 -67.87      1122.84
        22     445.2394  -6.6215  5.52  4.62        20        26    691.5129     28.5218     1.412     1.140 -43.19     1122.843
        23     71.75098  -4.6396  5.62  6.60         5         6   1489.8459     21.1552     0.739     0.567 -45.09     1122.819
        24     74.53796  -4.6809  7.96  5.28         5         6    905.3213     24.2017     0.735     0.651 -15.31     1122.595
        25     689.7407  -7.0967  4.23  5.28        23        27    259.7176     29.9928     1.349     1.112  -0.74     1123.003
        26     1156.181  -7.6576  5.30  5.94        52        63   1287.9758     51.7792     2.094     1.683  -3.79     1122.745
        27     147.9182  -5.4251  5.68  7.92        10        13   1154.5814     29.6159     1.042     0.904  36.45     1122.942
        28     186.0581  -5.6741  5.44  9.90        13        17   1014.7578     29.8020     2.078     0.698  19.42     1122.689
        29     263.7162  -6.0528  3.50  7.92        18        20    457.4936     35.0243     1.641     0.833 -38.42     1122.773
        30     62.64734  -4.4923  4.83  7.92         4         5    307.4127     30.2216     0.750     0.449  70.43     1122.885
        31     319.0315  -6.2596  4.87  6.60        16        19    161.1277     41.4450     1.241     0.974 -33.51     1123.113
        32     156.4139  -5.4857  5.58  5.94         9        14   1303.0320     47.0010     1.516     0.733 -66.12     1122.768
        33     104.5974  -5.0488  6.18  6.60         5         9   1592.6589     40.9460     0.947     0.686 -22.40     1122.857
        34     57053.88 -11.8907  3.50  3.50       188       198   1135.9323     79.1597     1.856     1.680 -48.75     1122.938
        35     424.8439  -6.5706  6.15  5.94        24        26    689.6588     58.5139     1.790     1.002  85.18     1122.871
        36     108.3342  -5.0869  6.12  7.26         8         8   1418.9020     48.8508     0.834     0.658 -44.07     1122.868
        37     127.6707  -5.2652  5.38  6.60         8         9   1909.9305     50.0001     0.783     0.775 -70.40     1122.846
        38     97.38733  -4.9713  5.52  4.62         6         8   1940.8627     50.1088     0.854     0.680  44.13     1122.846
        39     145.4304  -5.4066  3.54  7.26        10        11    109.0725     58.5362     1.087     0.716 -49.70     1123.413
        40     326.3978  -6.2844  3.50  5.94        15        18   1076.8468     61.8693     1.118     0.963 -66.12     1123.024
        41     2764.066  -8.6039  5.52  9.24       140       164   1473.0338     91.9690     3.678     2.803 -64.60     1122.955
        42     581.9146  -6.9121  5.45  5.28        29        32   1615.2644     68.1292     1.561     1.290 -36.30     1122.861
        43     88.80774  -4.8711  7.76  7.26         6         7   1037.2928     60.9539     0.732     0.672 -69.82     1122.853
        44     187.2041  -5.6808  6.54  8.58        14        14   1146.4971     66.5127     1.116     0.852 -44.47     1122.928
        45     1511.608  -7.9486  4.64  6.60        56        69   1145.2793     82.1470     1.944     1.780  -2.70     1122.907
        46     1135.352  -7.6378  3.87  4.62        32        36   1659.2843     77.2701     1.455     1.201 -71.13     1122.899
        47     331.1887  -6.3002  3.50  5.28        16        18   1296.9796     69.5885     1.221     0.889 -27.23     1122.738
        48     70.56433  -4.6215  3.50  4.62         5         5    834.7352     64.5907     0.734     0.459  17.92     1122.843
        49     2304.919  -8.4066  4.54  6.60       102       114   1100.6077     85.1996     3.423     1.929   1.93     1122.965
        50     368.3865  -6.4158  5.93  6.60        24        28    327.8874     77.6729     1.618     1.185 -82.46     1122.895
        51     1178.116  -7.6780  3.60  4.62        31        36   1876.9175     79.3055     1.388     1.231 -47.90     1122.827
        52     441.6864  -6.6128  5.10  7.26        26        29    697.2935     82.2086     1.837     1.102 -52.79     1122.888
        53     2471.432  -8.4824  3.74  5.28        54        66   1131.2000     89.9346     1.985     1.464 -20.40     1122.928
        54      126.198  -5.2526  6.01  5.94         7         9    796.8313     78.8671     1.006     0.839  39.35     1122.865
        55     131.2235  -5.2950  6.97 10.56         7        10   1843.9852     82.6225     0.972     0.743  39.74     1122.887
        56     291.3599  -6.1611  5.84  6.60        17        19    622.2964     88.5257     1.380     0.940 -83.54     1122.859
        57     164.5763  -5.5409  5.40  6.60        12        13    558.3549     91.1245     1.288     0.716 -51.73     1122.808
        58     4484.216  -9.1292  4.11  7.26       236       265   1458.4518    127.8424     4.766     3.717 -15.96     1123.549
        59     165.8889  -5.5495  4.07  7.26         9        10   1078.9058     89.0001     0.894     0.747 -11.12     1122.955
        60     1303.408  -7.7877  4.54  5.94        49        53    487.2903    107.3344     1.837     1.608  76.18     1122.792
        61     91.48682  -4.9034  4.49  5.28         6         6    981.5081     92.9945     0.762     0.500 -88.59     1122.472
        62     88.52136  -4.8676  6.79  5.28         5         7     55.0432     94.0313     0.885     0.526 -44.84     1122.957
        63     2459.624  -8.4772  5.32  5.94        96       106    927.0390    129.5272     3.333     1.768 -58.40     1122.514
        64     142.5261  -5.3847  6.70  5.28        10        10   1858.0768    102.4233     0.998     0.749  39.82     1122.853
        65     93.32043  -4.9249  6.62  3.96         5         6    174.1613    100.1614     0.718     0.566  50.11     1122.942
        66     277.3604  -6.1076  3.88  6.60        14        16    299.8935    109.1128     1.139     0.893 -87.94     1122.912
        67       138.08  -5.3503  7.08  5.28         8         9    938.5160    105.3431     0.994     0.621  -6.03     1122.483
        68      2650.42  -8.5583  3.50  3.96        40        46     91.9128    118.0617     1.415     1.272 -46.48     1122.874
        69     47758.84 -11.6976  3.50  3.96       165       192   1519.3315    145.0623     1.790     1.633 -47.33     1123.832
        70     258.7145  -6.0321  6.22  8.58        15        22     53.0920    113.0903     1.972     0.703 -34.01      1122.85
        71     204.0439  -5.7743  5.16  5.94        16        17   1848.8522    110.5333     1.256     0.986 -15.02     1122.882
        72     112.6874  -5.1297  8.05 10.56         7        10    108.9663    112.5268     1.038     0.661 -63.10     1122.888
        73      54.7749  -4.3465  6.98  7.92         4         5    970.3906    111.1892     0.773     0.446  71.79     1122.509
        74     63.61511  -4.5089  7.85 10.56         5         5     27.7540    118.0491     1.051     0.398 -85.40     1122.812
        75     211.1864  -5.8117  4.79  7.26        11        13    111.6488    118.4108     0.976     0.867 -39.34      1122.89
        76     58.24524  -4.4132  7.54  5.94         5         5   1336.2076    116.7893     0.984     0.349  44.86     1122.784
        77     6703.351  -9.5657  3.50  3.96        67        81    144.0866    136.4418     1.640     1.434 -49.74     1122.912
        78     108.7474  -5.0910  6.07  8.58         6        10     59.8133    121.4840     0.952     0.740  88.33     1122.836
        79     1050.166  -7.5531  4.74  7.26        42        52    912.1380    139.1649     1.755     1.602 -61.21     1122.595
        80     989.6543  -7.4887  5.11  5.28        39        44    945.1092    135.6542     1.601     1.515 -39.28     1122.536
        81     697.1091  -7.1083  4.88  6.60        30        37   1142.6595    134.6345     1.711     1.372 -41.74     1122.863
        82     626.5016  -6.9923  3.50  5.94        20        26    243.3036    132.6146     1.277     1.109 -26.08     1122.951
        83     298.5789  -6.1876  5.77  5.94        17        22   1479.7731    131.9459     1.355     1.069  40.38     1123.603
        84     58.25537  -4.4133  7.93  7.92         4         5      5.2020    129.9779     0.796     0.500  32.43     1122.722
        85     120.6626  -5.2039  8.12  6.60         8        11   1004.6376    135.5447     1.541     0.614 -25.41     1122.656
        86     254.4424  -6.0140  5.60  4.62        12        15   1148.4313    141.6760     1.073     0.904 -35.97     1122.843
        87     1485.941  -7.9300  4.93  7.26        49        56    915.4819    155.7990     1.766     1.568  -2.40     1122.591
        88     8961.088  -9.8809  5.01  9.24       295       356   1337.1886    209.3209     4.607     3.944  78.72     1122.656
        89     106.4558  -5.0679  6.28  6.60         5         7   1407.9786    146.2874     0.735     0.656 -10.60     1123.362
        90     73.22778  -4.6617  8.15  7.26         4         5    648.5930    145.7998     0.975     0.390  -5.89     1122.765
        91     350.6509  -6.3622  6.81 10.56        19        23   1513.0725    156.4141     1.313     1.229  88.05     1124.045
        92     1599.377  -8.0099  4.02  4.62        34        39   1317.8380    159.8999     1.421     1.243 -45.67     1122.814
        93     2096.814  -8.3039  4.51  6.60        72        80   1135.2493    168.5043     2.041     1.960 -29.72     1122.868
        94     119.1548  -5.1903  6.85  4.62         8         8   1175.1969    152.9684     0.825     0.649  52.20     1122.746
        95     99.52612  -4.9948  7.15  7.26         5         8     15.1418    155.0427     0.869     0.649 -45.65     1122.613
        96      210.189  -5.8065  6.85  5.94        12        15    160.0305    159.1057     1.505     0.773  22.78     1122.921
        97     320.4431  -6.2644  3.50  5.94        16        19    198.1255    165.8465     1.097     1.075 -19.43     1122.928
        98     6196.561  -9.4804  3.50  4.62        60        70   1246.9916    179.5919     1.555     1.442 -40.72      1122.77
        99     2637.026  -8.5528  4.18  6.60        91        98    491.9584    182.8567     2.279     2.123  59.09      1122.72
       100     882.6935  -7.3645  4.29  5.28        27        31    995.9047    174.6363     1.370     1.150 -35.14     1122.707
       101     5452.151  -9.3414  4.42  7.26       161       189   1381.2678    215.0727     3.355     2.536 -57.29      1122.67
       102     8388.886  -9.8093  4.34  5.94       255       282   1398.4677    211.3078     3.964     3.190 -21.70     1122.833
       103     85.18335  -4.8259  6.40  7.26         6         7   1188.9551    174.5132     0.979     0.605 -57.49     1122.704
       104     179.9735  -5.6380  6.02  9.90        11        14    204.7189    177.4568     1.097     0.896  59.84     1122.938
       105     4174.266  -9.0514  4.41  7.26       130       153   1521.8486    217.8230     3.473     2.164 -71.14     1123.051
       106     2286.957  -8.3981  3.99  6.60        64        74    289.6830    195.8036     2.008     1.712  56.64     1122.966
       107     124.4191  -5.2372  4.88  5.94         9         9    958.3419    179.4519     0.973     0.677 -32.55     1122.634
       108      224.385  -5.8775  4.30  5.94        11        14    102.3033    179.4771     0.962     0.937 -54.88     1122.883
       109     102.0763  -5.0223  5.65  9.90         7         8   1297.7351    178.2363     0.919     0.639   3.44     1122.758
       110     2405.006  -8.4528  4.35  5.94        87        98   1391.3490    201.1464     2.669     1.983 -38.63     1122.852
       111     10887.58 -10.0923  3.50  3.96        88        95   1545.6796    209.1689     1.670     1.491 -42.85      1123.22
       112     287.7822  -6.1477  4.57  7.26        19        24    797.8768    193.9522     1.744     0.997  49.57     1122.835
       113     21067.63 -10.8090  3.50  3.96       120       130   1155.8099    215.8756     1.742     1.566 -49.77     1122.773
       114     759.9099  -7.2019  5.06  5.28        31        34   1531.8551    201.0715     1.440     1.328  75.91     1123.375
       115     1793.008  -8.1340  5.42  6.60        58        77    500.2267    211.3275     2.177     1.641 -49.82     1122.647
       116      1257840 -15.2491  3.50  5.28     15052     16424   1067.2290   1099.9381    27.426    15.059 -80.52     1132.135
       117     1289.049  -7.7757  5.84  6.60        52        61   1302.6321    208.5879     1.890     1.764  34.51     1122.659
       118     853.0754  -7.3275  4.67  6.60        42        47    961.9024    207.4162     1.929     1.473 -86.91     1122.675
       119     219.8966  -5.8555  4.70  5.28        10        12   1290.6693    195.2129     0.969     0.831 -20.05     1122.712
       120     115.9441  -5.1606  4.01  6.60         7         9    595.1311    196.3429     0.906     0.677 -68.41     1122.688
       121     3025.639  -8.7020  3.91  5.28        96       107   1254.6444    220.5101     2.660     2.154  39.62     1122.686
       122     602.9504  -6.9507  3.97  6.60        38        43   1606.7408    203.9248     2.649     1.203  12.24     1123.077
       123     67.68384  -4.5762  7.06  8.58         5         7    708.9929    196.0000     0.893     0.531  43.04     1122.767
       124     110.5038  -5.1084  5.75  7.26         7         9    811.8742    199.4321     1.132     0.569 -62.14     1122.822
       125     766.2363  -7.2109  6.52 10.56        32        50   2016.8724    214.6389     1.909     1.318 -63.94     1122.751
       126     82.98364  -4.7975  6.22  7.26         6         7   1070.3038    199.1914     0.841     0.607 -60.82     1122.843
       127     397.8987  -6.4994  4.66  7.26        22        28   1456.8372    214.7296     1.581     1.150  73.30     1123.111
       128     531.9744  -6.8147  5.43  7.26        31        39   1096.8601    218.8203     1.936     1.365 -59.28     1122.865
       129     514.9794  -6.7795  5.30  7.26        33        37   1111.5226    213.5019     1.860     1.379 -19.50     1122.871
       130     160.0491  -5.5106  6.92 10.56        11        12    451.3359    209.3178     1.029     0.913 -41.50     1122.658
       131     483.0289  -6.7099  4.53  5.94        19        24   1552.7856    212.0753     1.330     1.068 -20.16     1123.162
       132     257.6366  -6.0275  7.72 10.56        18        19    450.4773    212.5180     1.209     1.118  -6.66     1122.647
       133     1715.603  -8.0860  5.23  8.58        58        67    444.4082    224.6545     2.238     1.538 -15.54     1122.614
       134     100.9838  -5.0106  6.61  6.60         8         9    234.4551    212.3444     1.020     0.640   5.33      1122.99
       135     748.1804  -7.1850  5.51  5.28        25        31   2013.4860    228.6472     1.341     1.253  17.89     1122.733
       136     69.38208  -4.6031  6.76  7.26         4         7   1935.8528    223.1139     1.022     0.593  75.87     1122.929
       137     698.5702  -7.1105  5.55  8.58        31        35   1591.6033    236.4263     1.641     1.305  64.78     1122.913
       138     383.3079  -6.4589  4.09  5.28        16        21   1177.8530    229.2200     1.207     1.029 -35.85     1122.708
       139     162.0277  -5.5240  4.89  5.94         8        11   1496.4669    226.6063     0.943     0.779   9.34     1122.921
       140     74.91992  -4.6865  5.94  7.92         4         6    937.8776    223.8489     0.765     0.567  44.38     1122.689
       141     111.0641  -5.1139  5.21  7.26         7        10     65.4646    230.6880     1.149     0.658  38.18     1122.898
       142     309.7124  -6.2274  4.60  5.94        19        20    596.8904    235.4517     1.267     1.074 -41.08     1122.668
       143     3093.914  -8.7263  3.50  4.62        42        49    928.8839    244.7875     1.471     1.301 -34.87      1122.69
       144     384.3734  -6.4619  4.39  5.94        19        22   1479.3219    239.8598     1.295     1.179  63.59     1122.921
       145     73.54944  -4.6664  7.68  9.24         5         6     57.6706    237.2140     1.123     0.403  76.67     1122.907
       146     103.5946  -5.0383  5.40  6.60         7         8    610.1320    235.1135     0.817     0.666 -39.39     1122.679
       147     114.9716  -5.1515  7.16  6.60         7         9   1079.9863    236.0529     0.790     0.777  -3.36     1122.859
       148     108.1693  -5.0853  4.48  7.92         9         9    190.3786    238.6542     1.044     0.650  -4.77     1122.974
       149       201.99  -5.7633  6.78  9.24        13        19    873.7241    244.7451     1.612     1.169  -2.11     1122.744
       150     230.7656  -5.9079  5.33  5.94        16        17    694.3377    248.5429     1.502     0.860 -57.06     1122.722
       151      190.886  -5.7019  7.10  8.58        13        14     40.2025    246.7641     1.294     0.816 -58.84     1122.922
       152      122.448  -5.2199  6.82  7.92         7        11   1999.1284    244.1816     0.913     0.867 -43.36     1122.685
       153     171.0188  -5.5826  3.50  6.60        12        14    150.2928    246.5433     0.999     0.986 -73.14     1122.935
       154     176.6621  -5.6179  3.50  5.28        11        13    159.9547    257.7373     1.295     0.710  86.16     1122.949
       155     105.2137  -5.0552  6.62  6.60         8         9   1997.9758    251.3282     1.118     0.623 -13.45     1122.648
       156     210.7789  -5.8096  5.83  8.58        13        19    968.9785    257.1552     1.467     1.025  59.59     1122.751
       157     994.1937  -7.4937  5.09  5.28        39        44    439.9160    267.1054     1.724     1.483 -73.62     1122.611
       158     971.9423  -7.4691  4.76  6.60        43        47   1667.1210    275.7869     2.243     1.250  62.01     1122.953
       159     3484.703  -8.8554  3.72  4.62        51        69    913.3400    273.3671     1.549     1.381 -71.84     1122.705
       160     2660.043  -8.5622  4.06  5.28        78        82    269.4959    278.9710     2.020     1.813   4.84     1123.069
       161     172.3589  -5.5911  5.59  6.60        10        13    561.7163    265.9959     1.086     0.828 -50.77     1122.661
       162      220.186  -5.8570  6.07  5.28        10        13    472.7238    267.5027     1.062     0.759 -50.81     1122.565
       163      279.641  -6.1165  3.73  4.62        11        14   1692.2531    269.2625     1.039     0.855 -42.39     1122.949
       164     16902.66 -10.5699  3.86  5.28       312       341   1940.0070    311.1167     5.899     2.420  22.11     1122.702
       165     5807.569  -9.4100  3.50  4.62        64        71    978.5657    287.7099     1.585     1.424 -51.51     1122.831
       166     396.9956  -6.4970  5.73  7.92        21        29   1242.3488    283.3000     1.938     1.081  49.11     1122.758
       167     1495.114  -7.9367  5.18  6.60        64        73    967.4129    314.3088     2.938     1.538 -85.41     1122.796
       168      70.2843  -4.6171  6.68  7.26         5         5    812.8113    275.5887     0.757     0.441  20.84     1122.747
       169     669.0281  -7.0636  4.84  7.92        31        40     89.5745    294.9966     2.023     1.245  71.29     1122.971
       170     186.6161  -5.6774  5.04  7.92        11        16    402.9511    286.8763     1.234     1.088  41.74     1122.657
       171      181.355  -5.6463  6.23  5.94         9        11     40.8612    284.5652     1.114     0.654 -52.08     1122.966
       172     682.7831  -7.0857  4.24  5.94        34        41   1287.6774    294.8435     1.918     1.453   0.39     1123.108
       173     274.5769  -6.0967  5.14  7.92        15        19   1155.8165    293.8736     1.193     1.016 -47.30      1122.73
       174      378.453  -6.4450  5.74  6.60        22        29   1091.6014    306.6473     1.432     1.320  30.83     1122.806
       175     302.7819  -6.2028  5.50  7.92        19        24    579.8832    312.4838     2.487     0.915 -55.69     1122.705
       176     323.7545  -6.2755  5.77  6.60        19        28    488.8755    310.2640     1.843     1.195  43.86     1122.602
       177     177049.1 -13.1202  3.50  3.50       312       355   1261.1678    354.2257     1.929     1.789 -50.41     1123.359
       178     43324.33 -11.5918  3.50  3.96       171       192   1081.3464    339.5954     1.818     1.662 -46.29     1122.795
       179     284.6931  -6.1359  4.80  7.92        18        21   1388.1758    314.3683     1.706     0.912 -81.85     1123.521
       180     580.6295  -6.9097  4.46  5.94        27        32   1214.2899    309.1555     1.562     1.249   8.12     1122.808
       181      135.574  -5.3304  6.49  9.90        10        11    340.0645    301.9092     1.519     0.778   4.96     1122.785
       182     329.5583  -6.2948  5.50  7.26        22        24   1399.8232    312.4033     1.434     1.303 -63.78     1123.366
       183     428.3525  -6.5795  4.97  6.60        20        23    407.3571    310.0655     1.303     1.134 -29.07     1122.688
       184      1857.98  -8.1726  4.46  5.94        63        72   1386.0027    322.5484     2.184     1.719 -25.35     1123.655
       185     554.6318  -6.8600  5.26  5.28        23        26    473.6337    315.7469     1.403     1.050 -46.18     1122.615
       186     566.2828  -6.8826  3.65  3.96        18        24    208.2796    315.7800     1.178     1.098 -72.17     1123.053
       187     157.2064  -5.4912  3.50  5.28        12        12   1276.5631    313.3354     1.137     0.821  86.18     1123.167
       188     2526.028  -8.5061  4.61  5.94        65        73   2013.5251    327.6393     1.828     1.724 -25.34     1122.449
       189     19929.35 -10.7487  3.50  3.96       120       130   1042.5428    341.5552     1.711     1.592 -41.43     1122.805
       190     71.53992  -4.6364  3.50  7.26         5         6   1133.9991    311.4810     0.791     0.499  -1.37     1122.763
       191     247.9766  -5.9860  5.20  5.94        15        17   1963.4587    319.8819     1.195     0.939  79.07     1122.612
       192     1516.759  -7.9523  4.72  7.26        55        67    369.8836    327.3158     2.680     1.379   4.43     1122.778
       193     107.2726  -5.0762  6.42 10.56         7         9    213.0906    319.6541     0.890     0.692  66.69     1123.062
       194     4049.882  -9.0186  3.50  4.62        65        73   1320.2231    345.2437     2.096     1.388  86.26      1123.76
       195     1104.621  -7.6080  4.38  5.28        27        32   1586.5895    327.6624     1.324     1.188 -42.66     1123.082
       196     226.1423  -5.8860  4.30  5.94        13        16    805.0840    325.3367     1.087     0.993 -72.76     1122.746
       197     170.7975  -5.5812  6.09  7.92        12        15    759.7633    325.8928     1.214     0.851  61.83     1122.746
       198     221.4272  -5.8631  4.66  3.50        14        16    434.4049    326.2166     1.140     0.928 -59.36     1122.679
       199     9634.689  -9.9596  3.50  3.96        75        84   1363.2229    341.4256     1.623     1.469 -42.17     1123.958
       200     116.6753  -5.1674  5.86  7.92         9         9   1774.6818    325.9980     1.023     0.632  37.10     1122.893
       201     178992.6 -13.1321  3.50  3.96       499       566    290.8152    408.3785     2.686     2.542 -71.16     1122.941
       202     101.4691  -5.0158  8.13  4.62         5         8   1241.7969    329.6071     0.978     0.651  15.56     1123.038
       203     219.7388  -5.8548  6.09  6.60        13        15    737.8308    337.7917     1.381     0.728 -42.39     1122.751
       204       109503 -12.5986  3.50  3.50       264       290    349.9768    382.0338     1.870     1.762 -51.84     1122.915
       205     218.6781  -5.8495  6.47 10.56        10        14    633.7645    339.4244     0.947     0.943 -16.17      1122.74
       206     933.1073  -7.4248  4.84  7.26        40        49   1166.5220    355.1084     1.757     1.540 -55.67     1122.784
       207     116.1646  -5.1627  5.26  4.62         8         8    161.4279    338.4743     1.071     0.499   0.61     1122.975
       208     91.08813  -4.8987  6.73  4.62         5         6   1802.4919    339.6436     0.885     0.479   0.86     1122.802
       209     96.22253  -4.9582  5.66  7.26         7         8   1569.1189    343.1243     0.832     0.669 -48.13     1122.819
       210      3291.19  -8.7934  3.50  4.62        44        49    649.8116    355.1223     1.460     1.313 -32.77     1122.752
       211     57.71069  -4.4031  6.95  6.60         4         5   2044.3687    347.2274     0.749     0.449  73.00     1122.453
       212     75.91406  -4.7008  8.22  9.24         5         7   1553.4435    349.0316     0.981     0.616  34.02     1122.837
       213     4047.108  -9.0179  3.50  4.62        50        57   1956.6885    364.8701     1.489     1.369 -62.81     1122.579
       214     221.2451  -5.8622  5.97  5.94        12        16   1142.6361    359.9722     1.535     0.748 -57.20     1122.785
       215     1603.732  -8.0128  4.38  5.28        51        58   1230.0414    363.3041     2.181     1.349   9.62     1123.238
       216     131.8795  -5.3004  7.39  7.26         9        10    431.9765    355.5665     1.055     0.657 -61.35     1122.727
       217     296.6958  -6.1808  6.70  7.26        14        21   1435.3414    356.4537     1.195     0.870  33.83     1123.096
       218     520.1473  -6.7903  6.32 10.56        32        39   1005.9843    365.4123     2.242     1.233  29.87       1122.8
       219     215.5033  -5.8336  5.77  7.92        15        18    204.3240    366.1909     1.378     0.988 -52.62     1123.032
       220     8662.037  -9.8441  4.17  5.94       191       219   1324.9105    392.7048     3.272     2.391   8.99      1124.09
       221      3013.38  -8.6976  5.10  9.24       102       112   1555.4316    391.8066     2.791     1.944 -70.88     1122.971
       222     255.5741  -6.0188  5.75  7.26        11        15    155.6030    367.4011     1.046     0.901  36.19     1122.976
       223     826.9812  -7.2937  4.30  5.94        29        34    265.8130    377.7154     1.473     1.212   1.87     1123.026
       224     68.81042  -4.5941  4.82  8.58         5         5   1474.6257    372.1602     0.751     0.442 -71.05     1123.294
       225     314.2542  -6.2432  5.87  8.58        19        24    956.7094    385.2164     1.692     1.007 -84.07      1122.81
       226     1320.839  -7.8021  4.37  5.94        44        53    430.4745    384.2721     2.355     1.243  -9.77     1122.794
       227     642.6487  -7.0199  3.89  5.28        21        25    546.4671    387.3841     1.232     1.082 -44.92     1122.806
       228     95.92944  -4.9549  5.67  7.26         7         8   1400.1846    379.8604     0.834     0.670  45.88     1123.958
       229     218.3546  -5.8479  5.12  5.28        12        14   1394.6847    384.5925     0.961     0.947 -80.74     1124.051
       230     484.1608  -6.7125  4.26  7.26        32        38    689.3535    404.3492     2.385     1.112 -84.94     1122.791
       231     971.7822  -7.4689  6.22  7.26        58        71    741.9466    403.1003     2.749     1.831 -12.71     1122.773
       232     125.8118  -5.2493  3.50  4.62         8        11   1245.3180    393.6378     1.025     0.795 -21.53      1123.85
       233       959.76  -7.4554  6.37  8.58        49        60    741.0192    411.9550     2.676     1.457 -42.41     1122.776
       234     1335.758  -7.8143  4.74  7.26        48        64   1659.6752    416.0818     2.048     1.495 -85.93     1123.124
       235     255.5544  -6.0187  4.58  6.60        13        16   1872.3318    403.2300     1.190     0.900  -9.47     1122.747
       236     111.5657  -5.1188  3.74  5.94         7         8   1438.8311    400.8431     0.808     0.668 -44.64     1123.902
       237     85.52979  -4.8303  4.09  6.60         5         7   1404.8571    409.6877     0.846     0.609 -26.33     1124.181
       238     534.4377  -6.8197  5.53  9.24        24        27   1141.0598    422.5802     1.483     1.121 -57.87     1122.871
       239     674.4178  -7.0723  6.12  6.60        28        38    336.9038    430.2188     1.785     1.238 -75.72      1122.92
       240     686.0931  -7.0910  3.50  5.28        26        31   1216.6630    422.3441     1.405     1.260  20.55       1123.8
       241     152.4423  -5.4578  4.90  5.28        10        11   1870.1815    417.4801     1.068     0.711 -51.46     1122.759
       242     289800.3 -13.6552  3.50  3.50       423       470   1403.9944    477.8641     2.025     1.854 -47.24     1124.378
       243     2803.462  -8.6192  5.64 10.56       155       185    894.8263    463.4575     3.912     2.911 -20.31     1122.829
       244     373.8851  -6.4318  6.57  8.58        24        35    282.8841    425.7050     2.884     0.940 -26.26      1122.93
       245     128.3807  -5.2712  5.29  6.60         8         9   1382.9691    421.3229     0.968     0.646  53.71     1124.273
       246      114.932  -5.1511  7.84  4.62         9        10    365.8194    422.7297     1.110     0.684  71.26     1122.906
       247     98.74011  -4.9862  6.04  7.92         7         7    392.9683    422.9814     0.890     0.526 -44.99      1122.89
       248     361.6383  -6.3957  3.79  5.28        18        22   1396.1155    429.0472     1.306     1.101  20.28     1124.277
       249      57.9491  -4.4076  5.68  8.58         5         5    118.8207    421.4039     0.740     0.450 -19.48      1123.01
       250     292.5574  -6.1655  3.50  7.26        17        20    213.5659    435.7708     1.420     0.945 -76.99     1123.022
       251     83.93054  -4.8098  4.33  7.26         6         6    144.5040    430.0357     0.778     0.500  89.01     1123.013
       252     334.3296  -6.3104  4.01  7.26        19        24   1557.8735    440.8316     1.520     1.055  85.42     1123.429
       253     117.7771  -5.1777  6.50  6.60         8         9    126.1822    433.5370     1.085     0.582 -63.24     1123.024
       254     183.4586  -5.6588  5.56  6.60        11        14    751.6194    439.9629     1.214     0.826  65.99     1122.824
       255     111.6051  -5.1192  4.39  7.26         7         8   1346.9254    435.1952     0.822     0.671  39.01     1124.288
       256     440.7874  -6.6106  5.96  6.60        26        33   1777.4104    443.6987     1.712     1.345 -32.13     1122.659
       257     307.7308  -6.2204  4.24  6.60        17        20    950.8442    444.6959     1.255     1.062  69.31     1122.838
       258     180.2369  -5.6396  6.61  9.24        13        14    804.2733    440.4104     1.253     0.791 -29.38     1122.834
       259     1349.703  -7.8256  4.21  7.26        54        61   1278.7523    463.9378     2.357     1.428 -84.51     1124.362
       260     656.4678  -7.0430  4.32  7.92        34        38   1454.2339    449.8026     1.648     1.455  37.14     1124.288
       261     823.3363  -7.2889  3.50  4.62        23        26   1366.0989    448.9276     1.282     1.083 -59.70     1124.316
       262     2799.188  -8.6176  6.65 10.56       145       175   1690.2032    481.1375     3.366     3.163  37.65     1122.791
       263     810.8872  -7.2724  5.21  8.58        43        46   1879.0094    453.9620     1.739     1.649 -49.46     1122.621
       264     13220.09 -10.3031  4.49  5.94       313       361   1931.6198    498.5213     3.789     3.473  86.05     1122.572
       265     420.0154  -6.5582  4.56  8.58        20        26     15.3062    457.7103     1.591     1.049  67.65     1122.892
       266     471.3916  -6.6835  3.50  7.26        21        25   1197.9141    459.2913     1.486     1.065 -75.61     1123.981
       267     1418.785  -7.8798  4.41  5.28        37        42    292.6844    467.6716     1.423     1.340  59.27     1122.943
       268       159.51  -5.5070  4.90  7.26         9        10    574.2485    458.2416     0.929     0.739 -44.42     1122.854
       269     303.6649  -6.2060  6.90  5.94        20        21    843.6061    459.5268     1.545     0.926 -17.85     1122.828
       270     1546.545  -7.9734  3.50  5.28        45        50   1261.0671    470.4420     1.728     1.491 -74.48     1124.359
       271     487.3951  -6.7197  6.42 10.56        28        33    306.7123    468.0474     1.941     1.143 -43.19     1122.943
       272     114.0745  -5.1430  3.50  5.28         8         8   1588.8940    458.8945     0.823     0.659 -46.30     1123.589
       273     98.84363  -4.9874  5.80  7.26         5         7    252.1905    462.6312     0.856     0.582 -78.93     1123.027
       274     304.2823  -6.2082  4.08  7.26        15        18    430.5998    469.5945     1.261     0.929 -30.40     1122.872
       275     358.4175  -6.3860  4.28  6.60        15        20   1627.5609    479.8217     1.351     0.902 -65.07     1123.466
       276     984.0458  -7.4825  5.22  6.60        47        51   1073.9482    491.4980     2.258     1.423 -28.27     1122.734
       277     109.3674  -5.0972  5.84  6.60         6         9   1871.9928    478.6921     0.994     0.640  53.10     1122.522
       278     5400.793  -9.3311  3.50  3.96        64        67    582.5281    990.7529     1.538     1.454 -69.73       1122.7
       279     68718.45 -12.0927  3.94  6.60      1627      1890   1446.5597   1478.7916    11.714    10.822  48.97     1126.297
       280     2967.306  -8.6809  3.50  5.28        37        43    249.1106   1487.2126     1.431     1.231 -23.80     1122.556
       281     149.0004  -5.4330  7.07 10.56        10        12    601.3049   1484.3995     1.064     0.800  60.26     1123.089
       282     54.97791  -4.3505  6.14  8.58         4         5    336.8074   1475.3794     0.757     0.445 -18.42     1122.608
       283     1002.795  -7.5030  3.93  4.62        25        33   1918.2206   1477.2998     1.307     1.222 -35.13     1122.668
       284     1974.055  -8.2384  4.20  5.94        51        59    524.8327    857.3538     1.741     1.610 -31.44     1122.585
       285     408.6013  -6.5282  4.00  5.94        19        24    881.9225    857.0865     1.574     0.962 -73.40     1124.242
       286     204.1057  -5.7746  6.15  7.26        10        16    621.0425    857.5113     1.308     0.847  31.05     1122.733
       287     339.4294  -6.3269  3.50  5.94        15        18    138.4828    857.1409     1.123     0.983  61.99      1123.11
       288     463.2141  -6.6645  6.38 10.56        33        43   1795.5918    847.2740     2.944     1.208 -65.53     1123.708
       289     105.6056  -5.0592  6.57  8.58         7         9    423.7437    851.2419     1.293     0.526 -73.72     1122.715
       290     185.8903  -5.6731  5.15  7.92        10        14   1438.1570    849.4800     0.985     0.971 -75.14     1123.494
       291      172.304  -5.5907  4.33  6.60        10        13   1014.4924    847.6358     1.147     0.760 -38.32     1124.577
       292     2669.893  -8.5662  3.50  4.62        41        49   2034.4677    841.8911     1.496     1.310 -40.94     1122.787
       293     125.1941  -5.2440  4.29 10.56         7         9   1732.6135    844.1237     0.897     0.683  20.16     1123.663
       294     506.0104  -6.7604  5.97  6.60        27        34    547.6341    841.4863     1.542     1.425 -66.66      1122.58
       295     74.66321  -4.6828  6.82  8.58         6         6    604.3391    842.8249     0.746     0.656  19.15     1122.724
       296     2265.959  -8.3881  3.90  4.62        38        43    635.1128    838.3630     1.400     1.313 -32.34      1122.79
       297     918.7128  -7.4079  3.50  4.62        26        30   1092.0789    837.2655     1.344     1.171 -41.51     1124.229
       298     188.2899  -5.6871  4.40  6.60        12        14   1604.3430    835.2198     1.189     0.912  63.37     1123.759
       299     106.6425  -5.0698  7.03  4.62         7         8   1451.0183    835.2507     0.981     0.609  64.72     1123.367
       300     94.88489  -4.9430  7.31  7.92         7         8     61.0689    835.4858     0.826     0.704 -86.57     1122.922
       301     180.7954  -5.6430  5.26  5.28        10        12    754.3109    947.0351     0.981     0.829 -36.37     1122.698
       302     245.3503  -5.9745  6.51 10.56        17        21   1367.1189    823.1758     1.236     1.188  30.59     1123.198
       303     359.9054  -6.3905  5.46  8.58        24        27    328.5378    822.9973     1.779     1.060   9.89     1122.957
       304     66.59448  -4.5586  5.95  9.24         3         5   1867.9767    821.0141     0.626     0.589   0.41     1122.981
       305     249.9142  -5.9945  7.40 10.56        17        20    457.5955    816.7578     1.663     0.958 -63.68     1122.709
       306     325.3856  -6.2810  6.16  5.94        20        22   1577.4103    813.3037     1.421     1.051 -44.18     1123.182
       307     788.3301  -7.2418  3.50  5.94        34        42    833.6469    811.5192     1.961     1.363  85.73     1123.652
       308     87.69983  -4.8575  7.01 10.56         6         7    804.4349    814.2930     0.891     0.643 -18.34     1123.021
       309     679.4261  -7.0804  3.50  5.28        20        25    226.7253    813.0083     1.280     1.028 -34.17     1123.139
       310     756.2665  -7.1967  4.66  7.92        36        41   1303.4664    811.1138     1.660     1.521 -26.40     1122.901
       311     65.16968  -4.5351  7.56 10.56         5         6    509.3526    811.1904     1.230     0.361  29.43     1122.664
       312     230.4717  -5.9065  5.05  7.92        15        18     38.4469    809.9153     1.412     0.916 -76.33     1122.872
       313     1444.279  -7.8991  5.21  9.24        69        77   1588.2999    805.4961     3.283     1.489  36.41     1122.972
       314     259.9099  -6.0371  5.21  6.60        14        15    651.6939    808.3853     1.182     0.845 -33.85     1122.851
       315     213.4814  -5.8234  6.58 10.56        10        19    548.4958    808.4835     1.414     0.780 -31.44     1122.618
       316     2793.888  -8.6155  5.31  6.60       123       143    766.3115    801.7225     2.999     2.647  50.98     1122.938
       317     250.8228  -5.9984  5.09  6.60        13        16     68.0722    805.7720     1.041     0.968 -63.47     1122.908
       318     2102.461  -8.3068  4.82  7.92        76        85   1625.1969    801.5311     2.242     2.089  36.69     1122.895
       319     26019.69 -11.0383  3.50  3.96       128       142   1890.4474    796.6551     1.783     1.588 -47.22      1122.83
       320      679.134  -7.0799  5.07  7.92        29        32    487.8721    797.7369     1.479     1.321 -38.77     1122.715
       321     457.5848  -6.6512  6.02  8.58        29        34   1406.3464    795.4280     1.761     1.453  10.38     1122.832
       322      219.854  -5.8553  6.89  6.60        13        16    529.1804    796.1895     1.175     0.938  23.03     1122.656
       323     397.2656  -6.4977  3.50  5.28        16        18    947.7144    794.4330     1.175     0.967 -26.52     1124.151
       324     304.4535  -6.2088  6.53  7.26        18        20   1219.0364    793.2315     1.481     0.938 -41.84     1122.916
       325     907.9688  -7.3952  3.50  5.94        31        37    875.0696    787.6410     1.480     1.300 -29.53     1124.012
       326     1463.867  -7.9138  4.69  7.26        60        73    771.0442    786.6761     2.186     1.946 -35.14     1122.936
       327      433.194  -6.5917  5.18  6.60        22        24    373.8025    787.1268     1.453     1.061 -37.05     1122.874
       328     575.0267  -6.8992  4.98  7.26        32        39   1140.2593    785.2334     1.931     1.361  -3.19     1123.596
       329      598.999  -6.9436  3.62  6.60        32        34    275.9298    779.6816     1.833     1.168 -24.33     1123.039
       330      105.415  -5.0573  8.39 10.56         8         8   1551.7880    778.6443     0.954     0.648  17.06     1122.859
       331     1036.041  -7.5384  4.54  4.62        31        36    631.1476    776.4907     1.442     1.240 -11.04     1122.831
       332     326.9556  -6.2862  4.95  7.92        19        24    841.0111    774.5203     1.555     1.084  19.27     1123.432
       333     12295.41 -10.2244  3.50  3.96        85        92    912.0920    769.3875     1.603     1.498 -39.58     1123.452
       334     389.9153  -6.4774  4.50  7.26        17        24    922.8281    766.4902     1.304     1.143 -41.62     1123.342
       335     246.6205  -5.9801  4.48  5.28        13        15   2034.2191    765.7021     1.079     0.937 -15.89     1122.984
       336      464.119  -6.6666  5.20  8.58        23        30    368.9970    761.4612     1.792     1.097  73.93     1122.886
       337     2814.146  -8.6234  3.50  4.62        41        49   1585.2533    760.7411     1.431     1.352 -45.19     1122.865
       338     1158.847  -7.6601  4.84  7.92        42        55    984.1053    759.2671     2.157     1.283 -53.09     1123.156
       339      2603.28  -8.5388  4.77  6.60       121       137    849.0753    756.8046     3.221     2.578  49.32     1123.193
       340      436.639  -6.6003  3.74  5.94        18        23    621.0993    760.7440     1.227     1.087 -66.70     1122.823
       341     122.2288  -5.2179  5.33  7.26         7         9    214.6298    758.0647     0.893     0.690  22.33     1123.183
       342     157.2468  -5.4915  6.88 10.56         9        12   1790.5460    757.1180     1.182     0.721 -18.24     1122.786
       343     192.7125  -5.7123  7.53 10.56        13        14   1414.2969    754.6854     1.094     0.901  30.80     1122.802
       344     123.4983  -5.2292  5.40  4.62         9         9   1347.1774    752.2938     0.925     0.679 -70.40     1122.791
       345     1206.435  -7.7038  5.42  5.94        47        58    469.0017    748.9380     2.031     1.601 -65.75      1122.77
       346     503.9531  -6.7560  5.25  6.60        22        24     46.0270    752.2386     1.271     1.156 -14.70     1122.965
       347      869.548  -7.3482  5.02  4.62        26        33    889.6959    749.6149     1.365     1.284 -32.39     1123.004
       348     1212.713  -7.7094  3.68  5.28        32        36    426.4032    749.4935     1.404     1.206 -69.23     1122.678
       349     909.3083  -7.3968  5.18  7.26        38        46   1367.3555    747.5118     1.664     1.590  63.11     1122.818
       350       2954.8  -8.6763  3.50  5.28        75        82   1101.6499    740.3290     2.473     1.578  83.97     1123.974
       351     198.0792  -5.7421  5.33  7.92        13        15   1960.1456    742.4767     1.277     0.873 -31.05     1122.984
       352      120.032  -5.1982  6.32  8.58         8         8    366.5277    739.4711     1.056     0.499 -88.70      1122.89
       353     512.2655  -6.7737  5.65  9.24        27        30   1380.4578    737.3248     1.611     1.193  18.35     1122.827
       354     139.4766  -5.3613  6.92  5.28         8         8    375.6767    735.7712     0.922     0.617 -80.89     1122.847
       355     104.5974  -5.0488  6.74  9.90         7         8    358.1875    734.3352     1.076     0.575 -55.86     1122.936
       356     635.2777  -7.0074  4.90  9.24        30        34     92.7310    733.4681     1.561     1.331 -73.71      1123.16
       357     467.5901  -6.6747  5.98  5.28        21        24    950.2269    730.1846     1.359     1.128 -63.34     1122.497
       358     3662.108  -8.9093  3.50  5.94       126       142    212.4622    726.4048     2.874     2.582 -32.51     1123.194
       359     61.78308  -4.4772  5.68 10.56         2         5    832.5952    724.8069     0.719     0.457  71.17     1122.866
       360     305.3918  -6.2121  3.94  5.94        19        24   1514.2841    719.7763     1.637     1.069  31.06     1122.806
       361     156.7271  -5.4879  5.26  7.26        12        15   1800.9767    719.2501     1.448     0.849  21.91     1122.821
       362     473.0291  -6.6872  3.71  5.28        17        19    464.3155    711.9761     1.132     0.978 -45.38     1122.788
       363     120.2301  -5.2000  6.20  4.62         8         9    102.0072    711.0486     0.779     0.771 -81.50     1123.173
       364     1233.312  -7.7277  3.62  4.62        29        35     29.1008    707.0847     1.287     1.270 -76.12     1122.989
       365     12319.06 -10.2264  3.90  5.94       257       278   1141.7078    699.7573     3.264     3.171  71.78      1123.05
       366      665.967  -7.0586  6.33  6.60        26        35    493.4366    702.6859     1.444     1.229 -49.92     1122.824
       367     112.0975  -5.1240  3.99  7.26         6         9    763.0685    702.7446     1.018     0.639 -28.61      1122.86
       368     86.58362  -4.8436  7.30 10.56         6         7   1040.0594    701.1949     1.154     0.446 -56.67     1123.234
       369     159.9181  -5.5097  6.12  9.24        10        11    928.2697    701.2597     1.151     0.709 -10.17     1122.494
       370     799.8181  -7.2575  5.57  8.58        34        40   1810.2919    695.8231     1.748     1.352 -86.19     1122.866
       371     271.0754  -6.0827  5.04  7.26        14        17    413.3633    695.8582     1.131     0.958  76.03     1122.767
       372     53154.65 -11.8139  3.50  5.28       634       708   1092.6794    676.8933     5.645     3.440  64.18     1122.842
       373     1040.095  -7.5427  5.72  7.26        51        59    869.1163    689.2087     2.158     1.747 -73.28     1122.741
       374     237.8622  -5.9408  6.99  4.62        11        15    874.0226    686.5222     1.109     0.949  26.02      1122.72
       375     1210.001  -7.7070  5.31  8.58        72        81    661.3298    688.6402     2.519     2.125  59.90     1122.819
       376     275762.8 -13.6013  3.50  3.50       426       476   1816.5009    675.7542     1.990     1.857 -58.51     1122.913
       377     109.7205  -5.1007  4.82  6.60         7         8   1203.3973    686.2709     0.976     0.580 -18.94     1122.805
       378     89.17249  -4.8756  3.50  7.92         6         6    242.4571    683.9904     0.786     0.498 -88.29     1123.138
       379     97.49573  -4.9725  4.90  8.58         6         7     44.2835    680.0641     0.732     0.676  83.13     1123.066
       380     698.8295  -7.1109  3.88  4.62        23        25    635.1277    686.7092     1.292     1.076 -53.79      1122.82
       381     1210.641  -7.7075  4.46  5.94        39        41    436.4971    675.6998     1.648     1.373 -65.07     1122.809
       382     241.8124  -5.9587  3.50  5.94        14        17    541.3487    676.1733     1.185     0.984 -15.80     1122.884
       383     115.6877  -5.1582  5.25  7.26        10        10   1703.1919    674.5351     0.983     0.727  88.83     1122.829
       384      125.512  -5.2467  6.28  5.94         8        10    943.9020    672.9604     0.973     0.855 -60.49      1122.49
       385     227.8047  -5.8939  6.18  9.90        18        18    921.5219    671.9667     1.388     0.978  15.79     1122.523
       386     1663.279  -8.0524  4.00  5.94        83        96    806.5626    668.3621     3.399     1.762  47.01     1122.875
       387       1567.8  -7.9882  4.95  7.26        72        86    494.7538    666.3171     2.370     2.107 -30.97     1122.828
       388     14718.05 -10.4196  4.13  5.28       324       354   1054.9412    657.3101     4.283     3.571  44.87     1122.803
       389     370.6849  -6.4225  5.18  5.94        21        24   1765.5209    664.9323     1.582     1.011 -36.40     1122.801
       390     69.27075  -4.6014  7.48 10.56         5         6   2015.8164    664.2113     0.762     0.569 -45.32     1122.789
       391     733.2635  -7.1632  5.94  7.92        42        52   1669.1595    660.8498     2.420     1.457  28.88     1122.774
       392     424.9034  -6.5707  5.58  5.28        20        23   1930.1099    658.3770     1.516     0.960 -59.96      1122.91
       393     105.7417  -5.0606  7.17  7.26         7         8    941.0135    658.2371     0.966     0.600  65.65     1122.561
       394     103.7328  -5.0398  7.40  9.90         7         8    986.1496    657.8809     0.819     0.673  45.08     1122.552
       395     616.7366  -6.9752  5.79  8.58        30        38   1489.9603    652.2909     1.939     1.255 -52.12       1122.7
       396     919.7134  -7.4091  3.82  5.28        26        31   1555.8414    652.3156     1.323     1.178 -56.12     1122.747
       397     308.7474  -6.2240  3.50  7.26        18        20   1350.9161    652.0354     1.413     1.017 -10.33     1122.886
       398     734.2577  -7.1646  5.93 10.56        44        50    864.6949    649.8788     1.983     1.752 -42.90     1122.773
       399     1610.493  -8.0174  4.79  6.60        57        62    422.6201    646.0608     2.203     1.613 -36.68     1122.784
       400     3188.848  -8.7591  4.80  6.60       118       140    423.5388    638.2003     3.822     2.157 -57.35     1122.775
       401     374.1965  -6.4327  4.19  6.60        14        21   1937.9097    647.0490     1.141     1.091 -74.85      1122.89
       402     305.7671  -6.2135  5.01  7.92        18        22    967.1498    643.5004     1.464     1.003 -79.95     1122.618
       403     282.9839  -6.1294  5.61  9.24        15        18    227.8628    644.5289     1.158     1.006 -34.94     1123.159
       404     102.1876  -5.0235  7.09  8.58         7         8   1112.8409    643.5110     0.888     0.669 -50.97     1122.739
       405     699.6564  -7.1122  5.35  7.26        19        28   1080.8457    642.3161     1.288     1.129 -49.39     1122.784
       406     627.7794  -6.9945  5.93  5.94        29        39   1168.3807    638.9289     1.582     1.306  63.04     1122.853
       407      3967.23  -8.9962  5.11  9.90       170       193   1634.3959    628.6799     4.787     2.280 -67.03     1122.601
       408     1209.143  -7.7062  3.50  5.28        28        36   1140.3252    634.9549     1.397     1.216 -56.14     1122.781
       409     191.0385  -5.7028  4.67  9.24        13        14    729.6052    634.1547     1.148     0.854  -7.99      1122.86
       410     130.5968  -5.2898  5.26  8.58         9        11    142.1212    634.3467     1.042     0.733  74.44     1123.211
       411     4674.104  -9.1742  4.09  5.94       109       119   1528.0996    629.5008     2.244     2.145   4.79     1122.709
       412     284.5599  -6.1354  5.52  7.26        18        20    615.0215    633.1425     1.421     1.067   8.48      1122.83
       413     60.04565  -4.4462  6.09  9.24         4         6     64.5054    634.0266     0.796     0.500 -89.80     1123.132
       414     89.16443  -4.8755  7.43  5.28         5         7   1411.9407    630.7252     0.720     0.675  -0.39     1122.815
       415     681.3014  -7.0833  5.35  6.60        28        36    879.6627    627.4362     1.659     1.287  -9.14     1122.775
       416     2496.925  -8.4935  3.86  5.94        66        76    692.7856    623.5244     1.852     1.798 -65.07     1122.911
       417     114.5106  -5.1471  7.81  4.62         7         8   1416.5093    624.8948     0.915     0.669 -36.67     1122.807
       418     734.7191  -7.1653  5.35  5.94        30        35   1713.2550    621.7808     1.671     1.274 -37.65     1122.729
       419     137.8223  -5.3483  6.64  6.60        10        11   1484.9572    621.3810     1.195     0.681 -31.67     1122.702
       420     189.0454  -5.6914  5.16  8.58        10        13    391.4601    619.7571     1.170     0.803 -40.86     1122.858
       421     60.26941  -4.4502  7.63  8.58         4         5    946.4034    619.2088     0.744     0.454  71.63     1122.743
       422     1724.516  -8.0917  4.49  7.26        81        90   1567.1554    611.0958     2.608     2.204 -71.32     1122.761
       423     2273.192  -8.3916  5.54  7.26       109       133   1263.1847    609.1450     2.982     2.718   5.49     1122.916
       424     22159.77 -10.8639  4.73  7.26       613       727   1638.7090    598.6555     6.224     4.938  29.80     1122.545
       425     146.4077  -5.4139  5.54  9.24        10        12   2019.4044    599.1738     1.133     0.848  -6.64     1122.636
       426     297.5812  -6.1840  5.27  8.58        17        19     14.4496    599.1096     1.295     0.977  76.12     1122.972
       427     142.4974  -5.3845  7.66  3.50         8        12    836.2076    594.5721     1.536     0.644 -22.06     1122.867
       428     96.30676  -4.9591  5.15  7.26         6         8   1208.8386    595.4865     0.874     0.660 -53.81     1123.125
       429     1570.394  -7.9900  5.14  9.24        72        81    870.6974    586.2765     3.120     1.575  56.31     1122.809
       430     936.4818  -7.4287  3.50  5.28        36        40    189.0773    607.3610     1.618     1.357 -35.69     1123.208
       431     992.4976  -7.4918  5.47  9.24        42        47   1531.6920    585.9176     1.727     1.504  31.93     1122.712
       432      120.552  -5.2029  7.07  7.26         7         8   1347.9235    585.7756     0.830     0.655 -36.57     1123.268
       433     257.6914  -6.0278  5.89  5.94        15        17   1226.2412    585.0671     1.237     1.012 -52.87      1123.25
       434     304.4009  -6.2086  5.47  5.28        21        23   1220.5990    581.7296     1.807     0.977   1.36     1123.293
       435     63.12219  -4.5005  7.32 10.56         4         5   1083.5813    607.7690     0.742     0.453  70.52     1122.789
       436     50.41345  -4.2564  5.34  7.92         5         5    773.3992    584.7570     0.755     0.452 -71.80     1122.911
       437     154.7395  -5.4740  3.50  5.94         9        11    578.0895    583.7355     1.001     0.722 -70.51     1122.849
       438     672.1049  -7.0686  5.47  4.62        20        26   2003.9869    580.9691     1.233     1.177  -5.99     1122.623
       439     5199.104  -9.2898  3.68  5.94       182       194    223.1331    576.3969     3.273     3.032  -5.98     1123.129
       440     1386.628  -7.8549  3.51  5.28        39        46    233.2402    570.1375     1.617     1.390 -42.75     1123.103
       441     989.5909  -7.4886  3.50  4.62        25        31    594.0529    599.4959     1.330     1.157 -37.92     1122.833
       442     323.5287  -6.2748  5.19  7.26        18        21   1403.9913    578.6697     1.224     1.145  12.26     1123.333
       443     112.5685  -5.1285  6.04  7.26         6         9    941.6218    578.9188     0.909     0.685 -24.60     1122.801
       444     152.0111  -5.4547  5.37  5.28        10        10   1388.8248    578.0395     0.925     0.746   3.40     1123.276
       445     815.1158  -7.2780  4.36  5.94        41        46    843.9293    573.5853     1.749     1.625  73.62     1122.846
       446     6467.261  -9.5268  3.50  3.96        60        70   1437.5718    570.9779     1.597     1.367 -46.34     1123.686
       447     92.15833  -4.9113  5.96  9.90         6         8   1223.0944    573.8974     0.832     0.662  43.37     1123.401
       448     200.4324  -5.7549  5.67  6.60        12        16    537.7621    571.8646     1.486     0.889 -39.61     1122.849
       449     2032.141  -8.2699  4.36  6.60       104       116   1474.1666    567.1967     3.936     1.872  21.48     1123.234
       450     584.1462  -6.9163  4.13  4.62        19        25    795.4704    568.5504     1.230     1.111 -62.44     1122.914
       451     148.1603  -5.4268  3.50  3.96         5         6   1855.5137    567.1464     0.721     0.500 -89.05      1122.88
       452     268.6294  -6.0729  6.72  7.26        17        22   1527.8146    566.8544     2.155     0.720  -5.40      1122.71
       453      991.387  -7.4906  5.24  5.94        41        47   1829.5903    560.7719     1.826     1.519  20.06     1122.826
       454     3842.313  -8.9615  3.50  3.96        48        57   1055.9355    558.1711     1.496     1.367 -47.22     1122.832
       455     110.9703  -5.1130  7.91 10.56         8        10    512.7780    556.9019     1.190     0.640 -68.87     1122.811
       456     378.0383  -6.4438  7.27 10.56        19        32    978.0048    552.9297     1.472     1.061  31.27     1122.804
       457     1045.137  -7.5479  4.84  7.92        48        52    852.6484    551.0482     2.121     1.470 -77.26     1122.827
       458     95041.89 -12.4448  3.50  3.50       242       263   1094.5159    542.1606     1.865     1.739 -48.67     1122.764
       459     310.3638  -6.2297  6.57  9.90        20        28   1120.9438    545.9678     2.096     1.002  60.14     1122.728
       460     95.30896  -4.9478  4.85  4.62         5         7    512.4381    544.7393     0.973     0.474  80.10     1122.815
       461     680.9254  -7.0827  5.87  8.58        37        47    900.1415    533.1719     1.948     1.535 -65.54     1122.818
       462      519.163  -6.7883  4.79  7.26        28        35   2000.8523    535.1867     1.532     1.521 -41.89      1122.53
       463     1734.812  -8.0981  4.83  5.94        64        74   1771.0513    533.5569     2.201     1.891 -29.86     1122.692
       464     1055.116  -7.5583  4.38  5.94        40        48    864.8140    533.5895     1.816     1.427 -71.19     1122.809
       465     498.7855  -6.7448  4.43  6.60        30        36    154.5672    531.8853     2.229     1.137  84.26      1123.14
       466     242.5646  -5.9621  3.50  5.28        15        16    143.0065    533.3239     1.135     0.928 -25.64     1123.137
       467     153.0988  -5.4624  7.13  8.58        10        11    557.6765    530.4402     1.504     0.667 -57.93     1122.885
       468     73.33252  -4.6632  6.34  8.58         5         6   1168.9402    524.5096     0.783     0.499   2.04     1123.614
       469     458.7571  -6.6540  3.77  4.62        16        18   1534.8762    515.4974     1.105     0.956 -28.48     1123.385
       470     553.8093  -6.8584  4.98  6.60        30        34    556.4041    513.5939     1.739     1.303  87.35     1122.878
       471     130.1519  -5.2861  6.40  4.62         6         9   1846.3678    512.1605     0.873     0.674 -22.20     1122.666
       472     3282.276  -8.7904  3.50  5.94        91        99   1255.8365    506.0653     2.366     1.980  -3.80     1124.167
       473     176.2953  -5.6156  6.40  4.62        13        13   1919.4862   1455.3738     1.152     0.773 -39.72     1123.043
       474     144.8417  -5.4022  4.90  8.58        10        11   1282.9336    506.8185     1.010     0.826 -36.91     1124.263
       475     516.8385  -6.7834  3.50  7.26        28        34   1160.1200    504.8328     2.269     1.020 -59.30     1123.495
       476      546.024  -6.8430  6.07 10.56        28        33    552.8565    503.2622     1.683     1.249 -68.61     1122.873
       477     539.3826  -6.8297  3.50  5.28        20        23    181.3526    501.8001     1.281     1.008 -51.03     1123.132
       478     524.8135  -6.8000  4.57  6.60        27        31   1375.6167    498.3282     1.660     1.229  80.82     1124.144
       479     108.2245  -5.0858  6.93 10.56         7        10   1653.2047    498.4818     0.987     0.716 -89.92     1123.031
       480     204.3051  -5.7757  3.76  5.94        11        14   1039.9717    494.2800     1.135     0.813  -1.26     1122.803
       481     144.0074  -5.3960  6.65 10.56         8        12    379.3121   1482.6913     1.187     0.827 -23.72     1122.585
       482     195.0687  -5.7255  6.49  9.24        12        16   1073.4889    484.1730     1.259     0.902 -45.41     1122.729
       483     239.1202  -5.9465  3.61  6.60        16        19   1494.0957    490.8189     1.181     1.160  23.28     1124.008
       484     72.09302  -4.6447  6.93  6.60         5         5    369.8468   1425.7891     0.988     0.340 -44.44      1122.58
       485     298.5624  -6.1876  5.06  5.28        13        15    108.3863   1451.4304     1.043     0.900 -51.57     1123.658
       486      88.5509  -4.8680  7.87 10.56         6         8   1141.1143    489.1593     0.832     0.667 -40.47     1123.058
       487     338.0419  -6.3224  3.56  5.94        17        18   1509.6511    485.5243     1.170     0.980  -8.94     1124.036
       488     82.34814  -4.7891  7.09 10.56         5         6    295.8353    482.1595     0.754     0.566 -46.52      1122.95
       489      82.7821  -4.7948  4.95  4.62         5         7    355.4735   1479.7184     0.987     0.480  80.88      1122.61
       490     75.67102  -4.6973  6.25  7.26         5         6    863.5106   1480.9484     0.798     0.498 -86.09     1124.188
       491     296.9775  -6.1818  4.14  5.94        14        16   1193.3540    487.8826     1.053     0.979  -5.12     1124.198
       492     1546.681  -7.9735  3.71  4.62        30        37   1003.1658   1464.4462     1.347     1.255 -28.50      1123.54
       493     390.0006  -6.4777  5.26  7.26        23        29    332.4636   1456.7538     1.585     1.242 -19.25     1122.593
       494     622.8331  -6.9859  3.50  5.28        30        33   1017.0191   1408.5245     1.580     1.256 -26.77      1124.17
       495     3740.848  -8.9324  4.00  5.94        99       114    964.7127   1462.0096     2.560     1.944  20.07     1123.457
       496     318.4818  -6.2577  3.50  6.60        14        17   1374.2261   1462.6647     1.093     0.946   7.85     1125.429
       497     193.0653  -5.7143  7.84 10.56        15        17     33.5011   1425.3263     2.229     0.750   2.07     1124.229
       498     86.88379  -4.8473  6.15  7.92         5         8     95.1589   1460.1847     0.832     0.683 -42.93     1123.929
       499     856.6338  -7.3320  3.50  5.94        41        46   1951.1956   1459.6936     2.154     1.266  20.98      1123.63
       500     435.4883  -6.5974  4.56  5.28        16        23    586.3595   1453.4225     1.339     1.046 -52.83     1123.393
       501     1736.257  -8.0990  4.15  4.62        38        46    374.7963   1458.9607     1.508     1.324 -60.63     1122.583
       502     74.34546  -4.6781  7.39 10.56         6         6    326.6490   1478.3333     0.885     0.516  45.15     1122.611
       503      1413.99  -7.8761  3.50  5.94        71        80   1685.1002   1446.3341     2.564     1.959  88.24     1124.262
       504     58467.21 -11.9173  3.50  3.96       180       197    798.3356   1451.3097     1.788     1.657 -46.08     1124.349
       505      611.708  -6.9664  3.54  5.94        20        26   1442.3765    859.5815     1.282     1.125 -51.32     1123.646
       506     18900.36 -10.6912  4.02  5.94       477       537      5.6705   1428.0756     7.020     4.183 -89.87     1124.454
       507      44092.5 -11.6109  3.56  5.94       907      1003    829.1636   1387.4414     7.892     4.424 -89.41     1124.383
       508     152.9872  -5.4616  7.47  5.94        10        12    370.7245   1466.0172     1.210     0.859 -82.21     1122.587
       509     86.96631  -4.8484  5.72  6.60         5         7    441.7090   1414.5432     1.414     0.390  80.17     1122.573
       510     8162.024  -9.7795  3.60  5.28       292       316    861.2902   1376.9865    10.589     1.719 -31.88     1124.353
       511     84.10608  -4.8121  5.23  6.60         6         7   1158.7698   1413.0338     0.715     0.682  82.44     1124.406
       512     82.90747  -4.7965  6.67  6.60         7         7   1974.9424   1436.3052     0.736     0.687 -14.17     1123.707
       513     2830.057  -8.6295  3.50  5.94       117       133    915.8016   1406.4037     2.819     2.683   7.48     1124.128
       514     90.34656  -4.8898  5.08  6.60         7         8   1996.1744   1414.1124     0.850     0.672 -44.01     1123.427
       515      51.4104  -4.2776  5.25  9.24         3         5   1048.7953   1422.9941     0.829     0.514 -33.95     1124.208
       516     127.9448  -5.2676  8.03  7.26         8        10    172.1493   1431.9862     1.552     0.557  29.65     1122.581
       517     148.7068  -5.4308  6.97  8.58        11        11   1344.8080   1417.6455     1.424     0.565  58.05     1124.741
       518     112.8387  -5.1311  7.25  7.92         8         9   1853.7845   1424.1387     1.065     0.649 -60.34     1122.782
       519     5388.696  -9.3287  3.50  3.96        54        60    695.0670   1419.9319     1.500     1.358 -34.89     1124.202
       520     2250.504  -8.3807  4.69  6.60        85        96   1439.2920   1406.4036     3.982     1.416  78.14      1125.21
       521     257.0433  -6.0250  6.36  7.92        17        18    479.7337    903.5721     1.290     0.948 -13.39     1122.628
       522     1632.258  -8.0320  3.50  6.60        67        75    675.1180   1416.8088     2.238     1.887 -62.74     1124.106
       523       2179.1  -8.3457  4.73  5.28        85        94    424.0418   1421.4907     2.483     2.163 -43.25     1122.578
       524     506.1381  -6.7607  3.50  6.60        24        26    634.5414   1427.6665     1.349     1.214  11.18     1124.118
       525     61.10645  -4.4652  7.26  8.58         4         5    450.6047   1400.6047     1.070     0.320 -21.24     1122.577
       526     189.0099  -5.6912  7.34 10.56         6        18    718.6759   1420.6924     1.035     0.782  59.09     1124.319
       527     396.2773  -6.4950  3.50  5.28        16        21    978.8089   1400.2513     1.167     1.056 -58.02     1124.089
       528     274.5649  -6.0966  5.71  5.94        15        17   1994.3999    868.8566     1.158     0.909  80.09     1122.693
       529     1329.408  -7.8091  3.50  4.62        32        34    748.6995   1414.3048     1.291     1.249  79.35     1124.388
       530      846.632  -7.3192  5.60  7.26        35        45    522.6774   1371.3716     2.069     1.325 -74.71     1122.597
       531     296.2568  -6.1792  3.50  5.94        14        17   1402.1471    864.3281     1.114     0.966 -58.18     1123.828
       532      127.212  -5.2613  6.23  4.62         9        10   1555.4824   1428.6241     1.521     0.495  53.16     1124.258
       533     462.8364  -6.6636  5.53  7.92        22        25    281.2465    860.7344     1.318     1.201 -34.70     1122.979
       534     43266.58 -11.5904  3.50  3.96       168       192   1301.7452   1358.7007     1.774     1.670 -37.80     1124.222
       535     767.0914  -7.2121  5.25  7.92        30        38    547.2283   1394.3529     1.649     1.331 -85.62     1122.643
       536     108.4209  -5.0878  5.57  7.92         7        10     94.2067   1343.9503     0.922     0.760  -4.99     1122.967
       537     87.08362  -4.8498  6.58  7.92         8         8   1720.8573    872.0994     0.848     0.662  44.41     1124.123
       538     727.2836  -7.1543  4.39  5.28        23        25   1899.2916   1386.3857     1.196     1.125 -25.28     1123.967
       539     3083.674  -8.7227  3.50  4.62        44        51    544.4536   1378.2366     1.450     1.361 -52.48     1122.592
       540     1002.165  -7.5023  3.73  6.60        35        43   1441.0768   1372.3217     1.850     1.270 -59.56     1125.097
       541     1009.325  -7.5101  6.03  7.92        59        70   1732.0865   1370.8401     2.391     2.044  -5.99      1123.89
       542     240.4739  -5.9527  6.37  6.60        15        17   1147.8268   1381.6471     1.278     1.001  77.25     1124.435
       543     16143.39 -10.5200  4.18  5.94       572       635   2001.6344   1352.4785    12.742     2.692  61.43     1123.779
       544     117.8051  -5.1779  6.62  9.24         8        11   1896.4420   1377.9812     1.130     0.797  66.88     1124.147
       545     744.2505  -7.1793  3.50  5.28        21        25   1254.7886    898.2152     1.220     1.105 -14.89     1124.164
       546     351.0005  -6.3633  4.76  7.26        19        25   1152.3984    869.7335     1.645     1.044   3.54     1124.453
       547     186.1831  -5.6749  5.56  5.94        12        12   1276.3301    878.8288     1.175     0.743 -74.87     1124.032
       548     602.2332  -6.9494  3.80  6.60        24        27    715.6353   1364.4310     1.379     1.116 -50.58      1123.92
       549     73.00269  -4.6583  3.50  8.58         4         5    833.7515   1310.3771     0.761     0.443 -18.58     1124.101
       550     55.20044  -4.3549  7.56  7.26         5         5     21.1992    893.1904     0.994     0.345 -45.69     1122.952
       551     5615.161  -9.3734  3.50  4.62        54        62   1573.5839    891.8477     1.523     1.373 -54.23     1124.545
       552     95.10522  -4.9455  7.02  7.92         5         8   1559.2184   1347.6215     0.941     0.635 -17.99     1124.114
       553     102.9314  -5.0314  5.67  6.60         7         8   1546.9155    884.8312     0.829     0.659 -43.11     1124.546
       554     308.3076  -6.2225  3.50  6.60        15        17    143.1914   1342.2444     1.116     1.000  51.24     1122.681
       555     1128.278  -7.6310  4.22  7.26        49        58    849.6901    886.0114     1.965     1.840  55.09     1123.798
       556     133330.9 -12.8123  3.50  3.50       342       367   1431.1122   1292.9584     2.051     1.921 -56.74      1124.39
       557     382.1718  -6.4556  5.44  7.92        24        29    602.7468   1341.0775     1.621     1.250 -19.30     1123.473
       558     81.23291  -4.7743  6.78 10.56         6         6   1367.1863   1355.0300     0.919     0.463 -53.02     1125.033
       559     1337.793  -7.8160  3.83  5.28        29        35   1869.0674   1252.3864     1.340     1.258 -12.81     1124.158
       560     935.4647  -7.4276  3.50  5.28        25        30   1171.4124   1319.2003     1.293     1.170 -48.33     1124.377
       561     948.1945  -7.4422  3.94  7.92        48        58    784.5347   1327.6522     2.610     1.400  40.76     1123.806
       562     134.4801  -5.3216  4.49  7.92         9        11   1289.0813   1346.8387     1.256     0.648 -14.01     1124.222
       563     236.2719  -5.9335  6.82  8.58        12        18    114.0570   1343.9296     1.219     0.992  57.46     1122.823
       564     63.82056  -4.5124  6.28  5.94         4         5    692.3793   1348.8046     0.775     0.438 -71.00     1123.507
       565     627.8171  -6.9946  3.50  5.94        22        26   1784.3442   1337.2886     1.333     1.070 -29.08     1123.966
       566     134.7227  -5.3236  3.50  6.60         9        11   1649.6124   1348.1218     1.291     0.653 -44.33     1124.108
       567     2735.888  -8.5927  4.32  5.94        75        87    526.8553   1314.1051     2.077     1.886 -79.28      1122.64
       568     152.1023  -5.4553  3.90  6.60        10        10    699.2025    900.9787     0.909     0.753  -0.32     1122.773
       569     28119.53 -11.1225  3.50  3.50       168       188   1415.6554   1310.8889     2.377     1.908 -77.49     1124.571
       570     2815.009  -8.6237  3.78  4.62        44        51    699.5312   1321.3789     1.436     1.376 -41.19     1122.899
       571     122188.4 -12.7176  3.50  3.50       272       296   1921.8149   1320.1144     1.879     1.772 -50.86     1123.986
       572     621910.9 -14.4843  3.50  5.28      9259     10357   1710.4180   1132.1829    16.994    16.746   8.66     1129.191
       573      108.369  -5.0873  5.37  9.24         7         8    238.1496   1333.0930     0.854     0.660 -47.48     1122.572
       574       291763 -13.6626  3.50  3.96       567       635   1413.1677   1300.4563     2.779     2.641 -34.99     1124.583
       575     378.3708  -6.4448  5.71  5.94        21        25    244.9056   1312.9828     1.531     1.105 -76.83     1122.586
       576     829.7241  -7.2973  4.81  5.94        32        38    143.7692   1295.9918     1.528     1.399 -44.90      1122.71
       577      1046.82  -7.5497  3.50  5.28        28        31    628.9070   1310.6078     1.359     1.153 -43.65     1122.876
       578     5888.494  -9.4250  3.50  4.62        59        67    604.8740   1282.7996     1.523     1.410 -41.13     1122.812
       579     5696.871  -9.3891  3.93  5.94       162       180   1673.2141   1277.0531     3.350     2.671  36.34     1124.748
       580     188.0419  -5.6856  5.81  7.92        12        16   1508.2070   1274.8597     1.230     0.925 -49.98     1124.113
       581     221.4662  -5.8633  4.07  5.94        12        12   1865.8862   1314.9994     0.950     0.836 -86.70     1124.148
       582      455.597  -6.6465  4.03  5.94        18        24   1699.6498   1314.7327     1.271     1.128  85.63     1124.144
       583     1401.165  -7.8662  5.18  6.60        67        92    478.5403   1308.3828     3.692     1.378   6.57     1122.724
       584      1349.53  -7.8255  4.42  7.92        76        83   1093.5778   1299.5863     2.497     2.216  75.52     1125.348
       585     164.4946  -5.5404  4.47  6.60         9        11    824.7708   1311.5524     0.910     0.827  73.12     1124.051
       586     149.0942  -5.4337  3.50  7.92        11        12   1230.1327   1302.0049     1.059     0.851 -83.97     1124.224
       587     2502.001  -8.4957  3.88  5.28        70        78   1650.2830   1292.6008     2.119     1.836 -44.86     1124.433
       588     297.3334  -6.1831  3.50  6.60        14        15   1021.4036   1320.1848     1.071     0.921  -4.50     1125.253
       589     97.78967  -4.9757  6.90  9.24         7         8     64.5029   1312.5315     0.994     0.591 -46.59     1123.347
       590     1644.535  -8.0401  4.46  5.94        56        67    615.3602   1301.7448     2.040     1.777 -51.82     1122.911
       591     142.0189  -5.3809  4.69  4.62         9        10   1590.0481   1283.7515     0.904     0.751  89.68     1124.246
       592     2393.452  -8.4476  3.50  4.62        38        44   1974.5155   1285.9233     1.403     1.297 -51.96     1123.536
       593     413.5831  -6.5414  3.87  5.94        21        25   1748.6418   1285.7699     1.332     1.211  39.70     1124.834
       594     81450.59 -12.2772  3.50  3.96       225       241   1349.3221   1289.4215     1.848     1.710 -56.19     1124.612
       595     72.71545  -4.6541  5.30  9.90         5         5   2015.4169   1278.8004     0.740     0.451 -70.07     1123.055
       596     11882.55 -10.1873  3.50  3.96        81        90   1257.1571   1286.6720     1.604     1.473 -42.72     1124.124
       597     301.9128  -6.1997  6.67  5.94        18        19    592.4440   1277.1644     1.285     1.021 -48.60     1122.753
       598     1178.144  -7.6780  3.60  5.28        30        34   1189.9155   1286.4856     1.367     1.217 -38.43     1124.489
       599      209.688  -5.8039  6.92  6.60        12        15    270.8088   1267.5033     1.068     0.949  16.67     1122.587
       600     4588.521  -9.1542  3.94  5.94       106       116   1457.6492   1258.6702     2.579     1.828  67.46     1124.262
       601     205.1588  -5.7802  6.79  4.62        14        14     99.8753   1259.0948     1.279     0.748   8.95     1122.851
       602      62.6261  -4.4919  6.80  8.58         4         5    858.9995   1285.0043     0.641     0.612  90.00     1124.231
       603     112.1278  -5.1243  3.50  6.60         7         8   1607.0408   1260.7615     0.978     0.598 -64.46     1124.568
       604     234.3206  -5.9245  6.16  7.26        14        18    341.4591   1252.8556     1.292     1.078  33.21     1122.698
       605     512.6481  -6.7745  3.77  5.28        24        26   1452.5963    903.9341     1.398     1.154  20.33      1124.41
       606     683.5779  -7.0870  5.67  5.94        40        46     22.7907   1266.1345     2.289     1.338  33.46     1123.047
       607     81711.45 -12.2807  3.74  5.94      2406      2645   1328.0072   1223.6713    12.348    10.563 -30.24     1124.478
       608     828.4535  -7.2957  5.18  6.60        31        36     37.4123   1258.4181     1.529     1.297  58.75     1122.881
       609     1690.913  -8.0703  5.57  5.94        62        72   1287.4797   1255.4315     2.023     1.768  73.81     1124.147
       610      305.239  -6.2116  6.49  9.90        22        23   1477.9624   1252.6895     1.596     1.057  -3.86     1124.201
       611     482.4213  -6.7086  4.49  5.94        24        27   1929.7998   1247.3645     1.474     1.129  89.82     1123.857
       612     954.9777  -7.4500  3.50  5.28        36        40    926.5803   1237.4500     1.761     1.254 -22.08     1125.367
       613     78.25793  -4.7338  4.45  7.92         5         6   1082.9714   1252.5021     0.790     0.499   3.21     1126.316
       614     2925.275  -8.6654  4.15  5.28        75        83     14.5190   1249.5508     2.404     1.529 -64.46     1122.713
       615     121.5709  -5.2121  6.67  7.26         7        10    898.5032    906.4457     0.978     0.754  89.93     1124.181
       616     2568.945  -8.5244  4.46  4.62        40        56   1287.2285   1219.1750     1.447     1.339 -58.97      1124.38
       617     275.5791  -6.1006  3.50  7.26        13        17   1838.6500   1231.3593     1.177     0.930 -77.35     1124.651
       618     264.0933  -6.0544  3.50  6.60        17        21    950.4133   1243.2157     1.485     1.023 -86.76     1125.638
       619     322.3165  -6.2707  4.29  5.28        18        20    747.2106   1241.2786     1.288     0.999 -54.44     1122.619
       620     441.6857  -6.6128  4.55  5.28        17        20    289.8488    909.3582     1.173     1.004 -29.64     1122.956
       621     24755.15 -10.9842  3.50  3.96       141       157   1744.9995   1219.5146     1.760     1.684 -50.13     1126.795
       622     4855.382  -9.2156  3.50  4.62        55        64   1006.6089   1237.5889     1.525     1.399 -55.50     1126.509
       623        112.9  -5.1317  6.68  5.28         7         8    501.7073   1225.2882     0.986     0.580  71.56     1122.749
       624     2772.542  -8.6072  4.67  7.92       102       123   1893.9062   1220.8456     3.969     1.740  40.55     1124.316
       625     553.4272  -6.8577  5.44  5.28        24        29    705.7473   1230.0808     1.428     1.250 -85.16     1122.594
       626     305.9813  -6.2142  3.61  5.94        14        17   1490.0558   1229.4951     1.033     1.015 -60.48     1124.105
       627     27118.36 -11.0832  3.50  5.94       405       459   1739.1066   1099.6991     4.372     3.651 -48.04     1128.652
       628     116.3024  -5.1640  6.51  6.60         7         8    183.8208   1219.1511     0.834     0.662  43.79     1122.833
       629     43.84729  -4.1049  9.40 10.56         3         5   1086.9965   1203.9725     0.625     0.615 -89.56     1127.767
       630     131.1692  -5.2946  5.47  5.28         8        10    375.2934   1226.3369     0.945     0.745 -43.13     1122.765
       631       947.74  -7.4417  3.50  7.26        46        53   1293.6294    943.3813     2.603     1.278 -62.87     1124.493
       632     356.0466  -6.3788  5.62  9.90        23        29   1473.3376   1223.8928     1.648     1.355 -27.25     1124.165
       633     12340.96 -10.2284  4.42  5.28       310       336   1608.2389   1164.5975     5.047     2.956 -77.09     1125.594
       634     37408.09 -11.4324  3.50  3.96       150       160    175.9701    940.3837     1.721     1.614 -61.45      1122.96
       635     167.4023  -5.5594  7.09  7.92        11        15   1469.8904    951.4453     1.712     1.048  12.24     1124.932
       636     3100.518  -8.7286  3.77  5.28        57        64    636.5825    940.7261     1.679     1.524 -27.00     1122.668
       637     4053.698  -9.0196  3.50  3.96        51        54    913.9736    913.6861     1.446     1.373 -35.00     1124.183
       638     2209.447  -8.3607  3.50  5.94        95       108    878.6698   1202.9812     2.745     2.238   8.16     1124.404
       639     561.8107  -6.8740  3.99  5.28        21        27    688.2162   1203.1138     1.449     1.056 -63.48     1122.607
       640     1524.823  -7.9580  4.96  5.94        57        61    644.6567    940.1095     2.178     1.684   0.20     1122.667
       641     1754.114  -8.1101  4.70  6.60        66        77    797.4055    909.1592     2.866     1.478  40.63     1122.717
       642     209.3541  -5.8022  3.50  6.60        10        11    898.7680   1215.8536     0.935     0.747   6.07     1124.849
       643     207.3951  -5.7920  6.55  6.60        14        17     81.4397    913.1671     1.590     0.826  21.75     1122.936
       644     310.0537  -6.2286  3.50  5.94        16        19   1947.9176    909.2678     1.178     1.035   6.86     1122.793
       645      312.627  -6.2376  3.50  5.28        16        21   1853.3744   1192.5209     1.544     0.912 -34.14      1125.38
       646     71.46265  -4.6352  6.22  5.94         4         6    827.0123    911.7932     0.902     0.472  36.64     1123.261
       647     30190.65 -11.1997  3.50  3.50       220       256   1054.9902   1003.4272     2.093     2.006 -49.97      1129.01
       648       192758 -13.2125  3.50  3.50       299       306   1016.6341   1093.2784     1.953     1.853 -43.46     1130.058
       649     109.5913  -5.0994  3.50  7.26         8         9   1806.9109    918.6276     0.917     0.680 -67.57       1124.4
       650      246.406  -5.9791  3.50  5.28        12        13    334.7551   1197.9746     0.980     0.871  51.41     1122.803
       651     81.41968  -4.7768  6.00  7.26         7         7    799.3027   1205.1575     0.883     0.599 -59.15     1122.859
       652     5581.841  -9.3669  3.50  4.62        54        65    891.5795   1178.2163     1.490     1.413 -37.95     1124.675
       653     1439.019  -7.8952  3.91  5.28        31        35    589.3574   1205.1207     1.300     1.249 -55.75     1122.619
       654     10947.82 -10.0983  3.50  5.28       259       275   1511.5956   1193.6724     5.303     2.420 -40.56      1124.03
       655     21835.57 -10.8479  3.57  5.28       455       528   1379.5448    908.2814     4.791     3.557 -16.50     1124.335
       656     471.4944  -6.6837  3.50  7.26        28        31   1779.6221    915.3208     1.820     1.153  40.96     1124.376
       657     175901.3 -13.1132  3.50  3.96       332       367    301.4537   1183.3612     1.967     1.822 -59.27     1122.766
       658     1915.388  -8.2056  4.30  5.94        79        90   1195.6525   1076.5625     2.514     2.147  67.53     1125.381
       659     690.7266  -7.0983  5.36  6.60        32        35    214.2749   1167.7382     1.462     1.391 -81.72     1122.964
       660     892.1433  -7.3761  3.50  5.94        39        44   1670.9662    939.0280     1.821     1.457  58.59     1124.692
       661     2879.044  -8.6481  3.95  5.28        67        71   1383.8822   1156.8235     1.764     1.740  -0.54      1124.96
       662     407.1212  -6.5243  3.50  5.28        15        20   1254.1906   1085.1442     1.144     1.034 -66.59     1125.036
       663     121.5415  -5.2118  8.02  7.26         7        11    977.3850    941.4412     0.968     0.828 -69.90     1124.619
       664     240.8566  -5.9544  3.50  5.94        13        14   1407.2526   1168.6033     1.062     0.853 -20.96     1124.603
       665     12830.26 -10.2706  3.50  3.96        94        98    762.0052   1174.1086     1.672     1.521 -62.55     1122.696
       666      604.504  -6.9535  3.62  5.28        21        25    200.9716   1133.3947     1.233     1.090 -63.45     1122.994
       667      152.666  -5.4594  5.95  9.24         9        11    575.7381    962.7651     1.135     0.710 -78.63     1122.659
       668     146.2708  -5.4129  6.45  7.26         9        12    625.4710   1157.5004     0.929     0.885  19.24      1122.64
       669     336.7017  -6.3181  5.54  6.60        22        24    219.8418   1160.0580     1.598     1.054 -40.10     1122.968
       670     237.9821  -5.9414  7.18  9.24        16        18    499.3758   1132.2236     1.323     0.932 -75.92     1122.826
       671     2706.581  -8.5811  4.77  6.60        92       102    494.1583   1145.9940     2.246     2.170  86.30     1122.832
       672     311.4077  -6.2333  4.66  4.62        16        17    428.1794   1160.9751     1.217     0.895 -80.30     1122.803
       673     2029.927  -8.2687  4.75  6.60        96       113   2042.3871    949.0992     2.915     2.334  84.48     1122.625
       674     1518.195  -7.9533  4.94  8.58        51        60    660.5425   1109.2462     1.873     1.619 -66.55     1122.634
       675     54.68921  -4.3448  6.87  7.26         4         5    547.1913   1152.5920     0.747     0.457 -17.81     1122.674
       676     201.3752  -5.7600  7.53  5.94        13        15   1797.9407   1149.2622     1.258     0.853 -27.51     1127.243
       677     522.6956  -6.7956  5.72  5.94        23        30    989.0067   1140.4338     1.343     1.168 -64.49     1128.574
       678     718.8511  -7.1416  7.00 10.56        35        57   1124.6057   1126.8383     2.375     1.304 -13.07     1131.454
       679     664.9222  -7.0569  4.90  8.58        34        37    426.2989   1123.6161     1.639     1.355 -62.50     1122.863
       680     360.8888  -6.3934  6.18  5.28        21        28   1951.4130    953.5651     1.557     1.241 -57.31     1122.797
       681     270.4718  -6.0803  3.50  4.62        12        13   1150.6337   1132.6506     0.948     0.843  63.23     1128.604
       682     107.9598  -5.0832  6.48  5.94         9         9    441.6529   1095.5713     1.046     0.643  85.03     1122.873
       683     456.6489  -6.6490  4.73  5.28        20        23   1338.4403    935.6830     1.273     1.082 -43.16     1124.526
       684     1339.841  -7.8176  3.80  5.28        36        42    422.8099   1104.7745     1.506     1.346 -65.18     1122.873
       685     384.7002  -6.4628  4.57  6.60        19        20     89.9821   1132.5314     1.278     1.005  -4.76     1123.007
       686     1975.531  -8.2392  3.50  5.28        56        66   1350.4501    951.1462     1.909     1.635 -14.59     1124.793
       687     7320.482  -9.6613  3.50  4.62        58        66   1526.6333   1132.4960     1.510     1.382 -47.58     1124.591
       688     244.7921  -5.9720  6.80  5.94        16        17    698.3505   1122.2850     1.234     0.979  56.76     1122.609
       689     398.9272  -6.5022  3.50  5.94        16        18    958.4630   1111.8193     1.093     0.983 -55.96     1127.021
       690     688.2131  -7.0943  5.00  9.24        47        58    841.6707   1117.1969     3.384     1.584  86.27     1123.464
       691     495.3954  -6.7374  8.57 10.56        18        44   1117.7454    952.2151     2.141     1.146  24.00     1125.584
       692     254.8156  -6.0156  6.32  6.60        13        15   1832.5684   1124.3049     1.135     0.891 -56.42     1126.065
       693     13004.95 -10.2853  3.50  3.96       107       121    650.1528   1111.2159     1.798     1.584 -23.54     1122.647
       694      580.048  -6.9087  6.46 10.56        35        43   1626.1678   1115.1348     2.067     1.520 -53.03     1126.807
       695     3217.046  -8.7686  4.60  6.60        96       108    637.2067   1108.4541     2.451     1.980  20.15     1122.666
       696     8943.815  -9.8788  3.58  5.94       227       248   1304.8236   1083.9564     3.411     3.120 -69.41     1125.407
       697     194.5953  -5.7228  5.00  9.24        10        15    889.7776   1096.4988     1.153     0.925  67.94     1124.374
       698     986.3478  -7.4851  3.62  5.94        37        41    901.4747   1096.0846     1.928     1.178 -57.21     1124.619
       699     101.4727  -5.0159  3.78  9.90         7         7   1290.3270   1112.9791     0.735     0.664 -87.25     1125.337
       700      362.575  -6.3985  6.01  7.26        17        22    407.6779   1106.8716     1.383     1.007 -40.02     1122.875
       701     354.1168  -6.3729  8.11 10.56        21        30    997.0895   1101.9022     2.026     1.002 -81.26     1129.077
       702     5001.454  -9.2477  3.50  4.62        55        61   1214.5549   1062.9860     1.519     1.384 -46.16     1125.208
       703     205.5632  -5.7824  7.07 10.56        11        19    612.7581   1101.1305     1.424     0.788 -58.86     1122.698
       704      100.098  -5.0011  3.50  6.60         6         8    881.5233   1099.4742     1.081     0.499 -89.38     1124.218
       705      3465.55  -8.8494  3.50  4.62        45        50   1920.2679   1079.5399     1.438     1.311 -48.79     1124.216
       706     927.3329  -7.4181  3.50  5.28        29        34   1575.9283   1072.3010     1.447     1.204 -48.06     1125.497
       707     2377.809  -8.4404  4.92  6.60        80        96    620.7101   1041.4060     2.276     2.057  76.64     1122.692
       708     531.5399  -6.8138  4.79  8.58        28        33    336.5612   1101.0721     2.166     0.996  39.66     1122.889
       709     62.51428  -4.4899  6.72  9.90         3         5    764.5925   1087.2108     0.745     0.449 -70.38     1122.615
       710     1598.674  -8.0094  3.50  4.62        35        42   1978.2690   1074.2797     1.384     1.342 -48.17     1123.368
       711     558.6331  -6.8678  5.99  5.28        29        34   1300.0680   1094.1473     1.849     1.275 -72.00     1125.378
       712     1869.535  -8.1793  3.57  5.28        35        42    691.2028   1064.4447     1.427     1.280 -26.96     1122.634
       713     274.7783  -6.0975  4.02  7.26        15        21    672.6451   1086.9528     1.281     1.088 -45.10     1122.631
       714     2792.014  -8.6148  3.85  5.28        60        69    803.9800    948.0825     1.796     1.698  -0.44     1122.688
       715     541.2938  -6.8336  5.86  7.92        33        36    811.3126    947.7306     1.792     1.405 -59.23     1122.831
       716     26859.53 -11.0727  3.50  3.96       122       135   1235.5291   1068.6886     1.708     1.563 -42.93     1125.046
       717     238.3198  -5.9429  7.73  5.94        16        19    705.8632   1083.5936     1.348     1.013  14.60     1122.619
       718     87.90137  -4.8600  6.44  7.26         6         7   1416.8003   1084.6676     0.843     0.617 -30.74     1125.204
       719     113.8596  -5.1409  4.97  7.26         8         8    461.8448   1084.9001     0.841     0.668 -43.80     1122.871
       720     598.1777  -6.9421  3.50  5.28        20        24    960.7393   1071.3450     1.207     1.089 -27.91     1126.835
       721     618.3124  -6.9780  4.72  5.28        20        24   1370.8074   1069.1936     1.220     1.096 -60.62      1125.55
       722     31951.49 -11.2612  3.50  3.96       137       148   1950.7518   1053.8357     1.720     1.592 -41.33     1123.853
       723     266.8115  -6.0655  7.59 10.56        17        22   1432.2301   1038.9097     1.502     1.156 -78.94     1125.608
       724     335.2065  -6.3133  4.90  6.60        20        23    821.0119   1065.3212     1.657     0.950  28.88     1122.939
       725     746.9093  -7.1832  3.77  5.94        29        36   1583.9127   1059.3232     1.482     1.326  56.76     1125.531
       726     169.7783  -5.5747  6.48  7.92        13        15   1153.8425    933.1558     1.197     0.967 -10.59     1124.931
       727     76.32471  -4.7067  6.31  7.92         4         7    654.0301   1057.9518     0.895     0.533 -45.32     1122.664
       728     124288.4 -12.7361  3.71  5.94      2724      3065   1413.2540   1008.4470    11.571     8.625 -38.27     1125.747
       729     373.8781  -6.4318  6.39  5.94        21        26   1026.1820    946.2952     1.435     1.217  66.67     1125.425
       730     16003.24 -10.5105  3.50  3.96       101       111    477.8765    966.8294     1.677     1.541 -46.50     1122.702
       731     2944.128  -8.6724  3.50  4.62        47        52   2017.6287    928.9553     1.534     1.324 -47.47     1122.683
       732     127.8757  -5.2670  5.54  7.26         9         9    644.5839   1047.7124     0.899     0.772  67.75     1122.672
       733     1161.303  -7.6624  4.74  6.60        44        47    441.1993    973.2283     1.640     1.510  89.01      1122.78
       734     579.3433  -6.9073  3.50  5.28        18        22     62.1908   1013.8901     1.165     1.064 -42.56     1123.062
       735     257.2957  -6.0261  4.29  5.28        11        15   1869.2480    929.1534     1.074     0.928 -56.61       1124.2
       736     196.6273  -5.7341  4.40  4.62        15        16   1513.4025    987.2426     1.151     0.975 -72.49      1124.76
       737     1949.724  -8.2249  3.50  4.62        36        43   1346.9617    979.7811     1.403     1.287 -40.34     1125.192
       738     215.4946  -5.8336  5.21  9.24        11        14    299.2861    980.9496     1.161     0.873 -71.29     1122.896
       739     14001.69 -10.3655  3.52  5.94       357       387    160.0439    909.0354     7.266     2.357 -62.59      1123.02
       740     5285.506  -9.3077  3.75  3.50        76        93   1376.1565   1012.8268     1.769     1.656 -58.53     1125.724
       741     641.4567  -7.0179  4.36  5.28        33        35    128.3405   1022.6812     1.824     1.244 -30.84     1123.102
       742     180.0298  -5.6384  6.81 10.56        14        15    741.3882   1013.5236     1.170     0.969 -12.62     1122.625
       743     189.7659  -5.6955  3.93  6.60        12        13   1402.4567    926.8400     1.006     0.888  13.44     1124.608
       744      1331.48  -7.8108  5.51  5.94        34        54   1028.3286   1023.8766     1.479     1.311 -47.96     1128.655
       745     2475.433  -8.4841  3.50  4.62        39        46    599.5783   1009.6411     1.447     1.279 -30.42     1122.703
       746     960.7147  -7.4565  5.13  6.60        41        47   1470.6653   1006.7520     1.772     1.511  -0.57     1125.345
       747     245.0957  -5.9733  7.69 10.56        17        21   1029.4576    989.8943     1.442     1.043  81.31     1126.953
       748     77.20435  -4.7191  7.00  8.58         6         6    716.3284   1007.3390     0.893     0.513 -44.96     1122.636
       749      1111.34  -7.6146  5.11  7.92        64        71   1950.1881   1002.8901     2.924     1.673  -9.99     1123.048
       750     48.38208  -4.2117  8.11  8.58         3         5    101.7817    926.7947     0.989     0.349 -43.87     1122.927
       751     93.57996  -4.9280  4.50  7.26         7         8    117.8442    924.7223     1.095     0.513  54.95     1122.936
       752     294.3593  -6.1722  3.88  4.62        13        15    580.6412   1005.4754     1.124     0.820 -33.53     1122.703
       753     335.5319  -6.3143  6.35 10.56        21        27    898.2282   1003.3394     1.468     1.289 -54.81     1123.927
       754      94.7793  -4.9418  6.60  7.92         6         8    672.5045   1004.9731     0.820     0.684  -0.54     1122.649
       755     854.4398  -7.3292  3.50  4.62        22        28    823.7883   1001.1475     1.264     1.149 -63.98     1122.971
       756     119.6581  -5.1949  7.57 10.56         9        10    787.4922   1003.0057     1.071     0.648 -26.57     1122.612
       757     1566.308  -7.9872  4.14  5.28        39        44   1632.8906    999.6749     1.498     1.387 -42.51       1125.5
       758      190.782  -5.7013  3.50  5.94        14        15   1292.2068   1000.2350     1.402     0.822 -56.89     1124.935
       759     2108.156  -8.3098  5.14  7.92        72        87    143.0457    991.5659     2.136     2.029  79.95     1123.096
       760     311.9443  -6.2352  5.23  7.92        18        22    792.9644    920.9517     1.281     1.151  19.06      1122.68
